File: XRD/XRD/09-10-2025 Dep 8/XY Data/BTO_Mapping_Theta2Theta_09-10-2025_001_18_-1-045_9-945.xy
20.00000 501.854
20.04000 502.194
20.08000 490.420
20.12000 482.339
20.16000 474.145
20.20000 475.242
20.24000 486.702
20.28000 478.349
20.32000 479.496
20.36000 479.443
20.40000 480.190
20.44000 480.195
20.48000 490.589
20.52000 477.649
20.56000 472.598
20.60000 477.961
20.64000 483.154
20.68000 496.270
20.72000 493.338
20.76000 484.400
20.80000 475.169
20.84000 486.722
20.88000 474.542
20.92000 460.794
20.96000 477.046
21.00000 478.908
21.04000 483.137
21.08000 485.883
21.12000 481.262
21.16000 464.207
21.20000 466.637
21.24000 466.733
21.28000 477.170
21.32000 469.534
21.36000 458.489
21.40000 476.972
21.44000 464.185
21.48000 475.688
21.52000 496.203
21.56000 488.234
21.60000 491.217
21.64000 488.296
21.68000 478.296
21.72000 491.553
21.76000 505.511
21.80000 510.941
21.84000 532.265
21.88000 518.961
21.92000 555.750
21.96000 580.066
22.00000 622.327
22.04000 616.086
22.08000 630.479
22.12000 626.986
22.16000 636.560
22.20000 613.282
22.24000 595.637
22.28000 584.109
22.32000 557.722
22.36000 524.181
22.40000 531.520
22.44000 511.452
22.48000 477.334
22.52000 495.967
22.56000 473.300
22.60000 472.533
22.64000 459.808
22.68000 465.107
22.72000 443.488
22.76000 448.244
22.80000 433.936
22.84000 458.402
22.88000 446.545
22.92000 437.999
22.96000 441.984
23.00000 456.473
23.04000 437.300
23.08000 444.058
23.12000 441.636
23.16000 427.779
23.20000 437.675
23.24000 434.363
23.28000 438.448
23.32000 436.217
23.36000 442.827
23.40000 441.615
23.44000 426.985
23.48000 429.862
23.52000 434.688
23.56000 424.338
23.60000 428.012
23.64000 422.030
23.68000 420.379
23.72000 436.099
23.76000 430.536
23.80000 440.273
23.84000 418.551
23.88000 431.747
23.92000 415.961
23.96000 432.375
24.00000 423.899
24.04000 425.023
24.08000 440.598
24.12000 411.659
24.16000 403.092
24.20000 418.225
24.24000 427.170
24.28000 420.961
24.32000 411.744
24.36000 425.044
24.40000 435.407
24.44000 417.824
24.48000 404.502
24.52000 429.285
24.56000 427.452
24.60000 409.416
24.64000 409.375
24.68000 416.612
24.72000 402.168
24.76000 418.470
24.80000 405.206
24.84000 394.926
24.88000 409.060
24.92000 420.243
24.96000 410.099
25.00000 403.988
25.04000 406.318
25.08000 430.088
25.12000 414.243
25.16000 415.084
25.20000 439.816
25.24000 423.201
25.28000 409.688
25.32000 420.440
25.36000 398.974
25.40000 400.803
25.44000 420.163
25.48000 388.170
25.52000 412.005
25.56000 409.364
25.60000 396.458
25.64000 395.143
25.68000 393.415
25.72000 394.663
25.76000 418.408
25.80000 403.743
25.84000 383.385
25.88000 401.019
25.92000 405.963
25.96000 391.570
26.00000 398.096
26.04000 388.539
26.08000 401.345
26.12000 394.336
26.16000 395.771
26.20000 393.032
26.24000 404.985
26.28000 377.128
26.32000 405.556
26.36000 415.939
26.40000 387.054
26.44000 381.042
26.48000 392.616
26.52000 399.390
26.56000 385.708
26.60000 394.877
26.64000 367.836
26.68000 377.396
26.72000 369.130
26.76000 375.185
26.80000 401.423
26.84000 389.742
26.88000 389.411
26.92000 378.027
26.96000 373.814
27.00000 387.639
27.04000 381.407
27.08000 378.560
27.12000 381.713
27.16000 381.160
27.20000 371.420
27.24000 381.677
27.28000 391.773
27.32000 393.621
27.36000 375.294
27.40000 385.661
27.44000 395.716
27.48000 364.581
27.52000 372.999
27.56000 365.587
27.60000 361.125
27.64000 384.274
27.68000 392.294
27.72000 374.984
27.76000 366.569
27.80000 362.916
27.84000 379.378
27.88000 377.362
27.92000 372.956
27.96000 378.375
28.00000 352.552
28.04000 363.184
28.08000 371.267
28.12000 361.005
28.16000 374.723
28.20000 365.810
28.24000 389.076
28.28000 388.322
28.32000 391.678
28.36000 389.823
28.40000 386.393
28.44000 354.965
28.48000 360.162
28.52000 358.613
28.56000 385.058
28.60000 378.217
28.64000 372.209
28.68000 365.674
28.72000 384.887
28.76000 389.840
28.80000 357.341
28.84000 368.778
28.88000 365.908
28.92000 371.456
28.96000 360.880
29.00000 378.323
29.04000 359.404
29.08000 356.725
29.12000 356.310
29.16000 358.568
29.20000 369.727
29.24000 379.034
29.28000 355.618
29.32000 359.622
29.36000 378.730
29.40000 371.413
29.44000 363.789
29.48000 366.442
29.52000 355.395
29.56000 375.039
29.60000 371.111
29.64000 367.071
29.68000 362.668
29.72000 364.786
29.76000 368.075
29.80000 384.822
29.84000 401.860
29.88000 410.862
29.92000 425.509
29.96000 435.726
30.00000 459.076
30.04000 452.338
30.08000 462.316
30.12000 470.481
30.16000 440.091
30.20000 423.901
30.24000 420.793
30.28000 426.168
30.32000 409.700
30.36000 409.357
30.40000 413.988
30.44000 404.894
30.48000 398.348
30.52000 396.891
30.56000 398.457
30.60000 406.345
30.64000 384.845
30.68000 418.345
30.72000 424.173
30.76000 409.255
30.80000 443.792
30.84000 440.039
30.88000 458.383
30.92000 465.303
30.96000 500.850
31.00000 528.509
31.04000 576.566
31.08000 661.708
31.12000 820.798
31.16000 1048.428
31.20000 1342.904
31.24000 1716.094
31.28000 2228.722
31.32000 2665.314
31.36000 3045.843
31.40000 3146.633
31.44000 3122.648
31.48000 2903.199
31.52000 2441.753
31.56000 1975.009
31.60000 1570.836
31.64000 1180.741
31.68000 958.166
31.72000 774.494
31.76000 639.865
31.80000 572.946
31.84000 509.482
31.88000 443.581
31.92000 421.335
31.96000 418.452
32.00000 401.799
32.04000 382.820
32.08000 397.975
32.12000 380.867
32.16000 382.500
32.20000 359.884
32.24000 358.277
32.28000 363.022
32.32000 351.564
32.36000 351.132
32.40000 347.852
32.44000 352.453
32.48000 339.838
32.52000 345.541
32.56000 334.230
32.60000 340.607
32.64000 334.060
32.68000 310.107
32.72000 326.764
32.76000 338.472
32.80000 350.597
32.84000 336.954
32.88000 326.352
32.92000 327.885
32.96000 318.515
33.00000 321.537
33.04000 317.250
33.08000 304.145
33.12000 305.177
33.16000 316.576
33.20000 328.858
33.24000 317.862
33.28000 314.626
33.32000 313.276
33.36000 305.359
33.40000 306.502
33.44000 315.458
33.48000 300.137
33.52000 303.450
33.56000 299.968
33.60000 290.718
33.64000 295.641
33.68000 300.434
33.72000 305.579
33.76000 297.317
33.80000 296.332
33.84000 289.515
33.88000 303.935
33.92000 295.463
33.96000 286.467
34.00000 283.595
34.04000 307.006
34.08000 293.734
34.12000 290.694
34.16000 288.687
34.20000 285.085
34.24000 312.608
34.28000 297.459
34.32000 296.221
34.36000 298.108
34.40000 288.210
34.44000 283.045
34.48000 285.917
34.52000 286.316
34.56000 289.545
34.60000 291.527
34.64000 282.832
34.68000 298.059
34.72000 290.458
34.76000 295.958
34.80000 283.048
34.84000 283.718
34.88000 296.133
34.92000 275.958
34.96000 290.525
35.00000 273.382
35.04000 270.303
35.08000 293.168
35.12000 280.912
35.16000 275.888
35.20000 274.571
35.24000 278.842
35.28000 270.892
35.32000 273.149
35.36000 263.043
35.40000 256.132
35.44000 276.358
35.48000 273.208
35.52000 260.616
35.56000 275.645
35.60000 283.347
35.64000 264.456
35.68000 249.768
35.72000 279.225
35.76000 281.007
35.80000 272.027
35.84000 265.317
35.88000 256.205
35.92000 276.432
35.96000 261.206
36.00000 266.870
36.04000 259.717
36.08000 280.452
36.12000 287.296
36.16000 277.762
36.20000 264.867
36.24000 270.242
36.28000 280.435
36.32000 248.851
36.36000 265.601
36.40000 257.654
36.44000 245.955
36.48000 266.943
36.52000 261.295
36.56000 271.683
36.60000 259.729
36.64000 252.091
36.68000 259.492
36.72000 257.162
36.76000 265.080
36.80000 260.013
36.84000 269.179
36.88000 276.332
36.92000 273.733
36.96000 312.002
37.00000 291.826
37.04000 284.614
37.08000 282.086
37.12000 296.750
37.16000 279.897
37.20000 267.719
37.24000 257.187
37.28000 260.868
37.32000 266.873
37.36000 281.728
37.40000 262.930
37.44000 267.308
37.48000 257.619
37.52000 258.064
37.56000 259.560
37.60000 261.071
37.64000 265.240
37.68000 263.614
37.72000 250.797
37.76000 263.903
37.80000 256.787
37.84000 256.673
37.88000 262.105
37.92000 268.524
37.96000 259.395
38.00000 264.369
38.04000 270.557
38.08000 275.469
38.12000 273.091
38.16000 271.503
38.20000 266.712
38.24000 290.113
38.28000 286.612
38.32000 299.837
38.36000 326.333
38.40000 332.084
38.44000 379.998
38.48000 445.874
38.52000 523.085
38.56000 630.905
38.60000 771.012
38.64000 926.731
38.68000 1023.632
38.72000 1075.273
38.76000 1088.465
38.80000 1017.285
38.84000 902.748
38.88000 751.451
38.92000 622.845
38.96000 504.967
39.00000 418.618
39.04000 345.272
39.08000 323.248
39.12000 315.188
39.16000 281.505
39.20000 277.724
39.24000 261.815
39.28000 244.841
39.32000 242.746
39.36000 251.622
39.40000 234.503
39.44000 248.758
39.48000 238.996
39.52000 242.731
39.56000 253.709
39.60000 246.171
39.64000 229.551
39.68000 254.744
39.72000 244.173
39.76000 241.208
39.80000 235.038
39.84000 222.063
39.88000 235.054
39.92000 224.783
39.96000 235.226
40.00000 232.396
40.04000 221.678
40.08000 227.442
40.12000 226.278
40.16000 227.488
40.20000 227.972
40.24000 228.364
40.28000 229.611
40.32000 231.041
40.36000 227.493
40.40000 224.622
40.44000 219.847
40.48000 234.346
40.52000 222.766
40.56000 228.368
40.60000 238.104
40.64000 211.702
40.68000 212.630
40.72000 211.781
40.76000 216.154
40.80000 217.290
40.84000 221.553
40.88000 218.664
40.92000 223.105
40.96000 221.599
41.00000 209.190
41.04000 214.197
41.08000 215.852
41.12000 204.087
41.16000 209.740
41.20000 221.570
41.24000 218.147
41.28000 201.962
41.32000 198.895
41.36000 208.501
41.40000 224.550
41.44000 214.067
41.48000 198.089
41.52000 215.991
41.56000 209.333
41.60000 217.921
41.64000 211.874
41.68000 210.542
41.72000 203.858
41.76000 206.641
41.80000 213.755
41.84000 212.789
41.88000 205.520
41.92000 224.059
41.96000 200.571
42.00000 201.557
42.04000 199.048
42.08000 204.696
42.12000 208.874
42.16000 206.614
42.20000 207.397
42.24000 201.714
42.28000 204.819
42.32000 208.098
42.36000 204.088
42.40000 202.656
42.44000 195.711
42.48000 205.325
42.52000 203.728
42.56000 199.254
42.60000 200.036
42.64000 192.648
42.68000 204.487
42.72000 211.036
42.76000 210.632
42.80000 204.288
42.84000 201.767
42.88000 209.694
42.92000 202.289
42.96000 198.189
43.00000 199.060
43.04000 198.949
43.08000 209.390
43.12000 202.797
43.16000 209.250
43.20000 201.696
43.24000 198.367
43.28000 207.089
43.32000 195.457
43.36000 207.736
43.40000 196.874
43.44000 194.689
43.48000 189.497
43.52000 208.854
43.56000 199.865
43.60000 203.153
43.64000 199.435
43.68000 185.628
43.72000 199.219
43.76000 204.506
43.80000 203.722
43.84000 194.369
43.88000 201.035
43.92000 202.874
43.96000 186.102
44.00000 187.789
44.04000 203.943
44.08000 192.504
44.12000 192.756
44.16000 188.285
44.20000 185.914
44.24000 203.903
44.28000 197.039
44.32000 198.555
44.36000 195.639
44.40000 208.623
44.44000 194.747
44.48000 199.695
44.52000 197.212
44.56000 207.471
44.60000 203.873
44.64000 205.976
44.68000 213.549
44.72000 228.842
44.76000 225.062
44.80000 235.418
44.84000 232.009
44.88000 258.629
44.92000 268.260
44.96000 275.833
45.00000 288.138
45.04000 305.756
45.08000 318.705
45.12000 320.848
45.16000 325.361
45.20000 329.775
45.24000 334.861
45.28000 299.530
45.32000 298.490
45.36000 295.591
45.40000 286.711
45.44000 279.170
45.48000 263.720
45.52000 265.004
45.56000 236.065
45.60000 246.920
45.64000 233.249
45.68000 227.727
45.72000 222.535
45.76000 203.388
45.80000 210.573
45.84000 203.696
45.88000 205.214
45.92000 191.811
45.96000 187.296
46.00000 198.802
46.04000 185.489
46.08000 184.233
46.12000 184.018
46.16000 194.011
46.20000 184.189
46.24000 177.548
46.28000 172.755
46.32000 182.475
46.36000 182.874
46.40000 182.909
46.44000 185.064
46.48000 167.987
46.52000 169.888
46.56000 171.051
46.60000 181.983
46.64000 176.680
46.68000 178.248
46.72000 187.486
46.76000 175.641
46.80000 173.697
46.84000 165.603
46.88000 169.867
46.92000 166.290
46.96000 173.058
47.00000 171.468
47.04000 168.433
47.08000 174.569
47.12000 170.767
47.16000 179.263
47.20000 174.076
47.24000 175.383
47.28000 176.883
47.32000 174.470
47.36000 167.228
47.40000 167.030
47.44000 168.266
47.48000 159.557
47.52000 164.872
47.56000 159.792
47.60000 170.338
47.64000 163.443
47.68000 161.532
47.72000 160.377
47.76000 170.017
47.80000 161.476
47.84000 167.420
47.88000 155.909
47.92000 173.427
47.96000 169.573
48.00000 164.740
48.04000 157.039
48.08000 166.731
48.12000 163.742
48.16000 155.741
48.20000 160.681
48.24000 165.540
48.28000 169.994
48.32000 174.204
48.36000 163.479
48.40000 166.556
48.44000 160.661
48.48000 157.635
48.52000 161.991
48.56000 168.632
48.60000 168.461
48.64000 158.505
48.68000 158.247
48.72000 151.993
48.76000 166.394
48.80000 160.505
48.84000 166.061
48.88000 163.161
48.92000 147.723
48.96000 163.111
49.00000 154.303
49.04000 158.226
49.08000 160.640
49.12000 149.295
49.16000 160.821
49.20000 150.873
49.24000 156.648
49.28000 150.651
49.32000 161.894
49.36000 149.243
49.40000 149.901
49.44000 152.237
49.48000 161.036
49.52000 143.895
49.56000 151.571
49.60000 159.124
49.64000 151.301
49.68000 154.786
49.72000 153.537
49.76000 152.713
49.80000 144.665
49.84000 155.344
49.88000 158.608
49.92000 161.969
49.96000 156.327
50.00000 148.977
50.04000 150.223
50.08000 156.738
50.12000 147.312
50.16000 153.966
50.20000 151.527
50.24000 160.368
50.28000 175.279
50.32000 164.712
50.36000 164.731
50.40000 176.061
50.44000 175.974
50.48000 164.716
50.52000 176.379
50.56000 192.599
50.60000 200.568
50.64000 218.067
50.68000 229.066
50.72000 235.235
50.76000 220.332
50.80000 233.282
50.84000 229.099
50.88000 214.194
50.92000 210.493
50.96000 201.860
51.00000 194.782
51.04000 187.457
51.08000 174.945
51.12000 178.031
51.16000 170.862
51.20000 164.922
51.24000 160.145
51.28000 168.695
51.32000 154.573
51.36000 153.896
51.40000 153.489
51.44000 153.558
51.48000 152.807
51.52000 154.703
51.56000 154.662
51.60000 146.755
51.64000 148.745
51.68000 143.063
51.72000 138.725
51.76000 147.747
51.80000 145.708
51.84000 143.673
51.88000 143.098
51.92000 146.348
51.96000 136.967
52.00000 137.647
52.04000 146.236
52.08000 148.812
52.12000 140.119
52.16000 141.718
52.20000 149.812
52.24000 147.495
52.28000 145.875
52.32000 139.388
52.36000 140.403
52.40000 139.877
52.44000 143.216
52.48000 148.382
52.52000 137.297
52.56000 139.019
52.60000 142.795
52.64000 131.596
52.68000 128.491
52.72000 142.994
52.76000 141.985
52.80000 143.376
52.84000 145.995
52.88000 130.766
52.92000 142.787
52.96000 134.819
53.00000 144.086
53.04000 144.942
53.08000 145.558
53.12000 142.585
53.16000 147.994
53.20000 149.891
53.24000 151.950
53.28000 138.514
53.32000 154.351
53.36000 158.838
53.40000 149.239
53.44000 151.308
53.48000 155.919
53.52000 146.177
53.56000 137.519
53.60000 136.702
53.64000 147.066
53.68000 137.166
53.72000 157.010
53.76000 148.195
53.80000 143.708
53.84000 146.107
53.88000 139.108
53.92000 139.370
53.96000 137.402
54.00000 139.746
54.04000 149.019
54.08000 147.787
54.12000 139.704
54.16000 145.020
54.20000 139.309
54.24000 139.258
54.28000 134.333
54.32000 142.419
54.36000 142.680
54.40000 140.156
54.44000 144.980
54.48000 138.934
54.52000 139.712
54.56000 141.353
54.60000 138.193
54.64000 140.447
54.68000 134.297
54.72000 129.254
54.76000 146.143
54.80000 135.886
54.84000 142.668
54.88000 142.420
54.92000 148.583
54.96000 146.175
55.00000 143.683
55.04000 150.904
55.08000 149.820
55.12000 148.425
55.16000 148.753
55.20000 153.247
55.24000 149.246
55.28000 149.795
55.32000 155.018
55.36000 148.811
55.40000 160.986
55.44000 164.184
55.48000 172.091
55.52000 168.445
55.56000 181.113
55.60000 192.960
55.64000 210.069
55.68000 244.709
55.72000 267.681
55.76000 321.627
55.80000 378.380
55.84000 439.831
55.88000 478.911
55.92000 504.791
55.96000 568.652
56.00000 567.393
56.04000 540.771
56.08000 520.326
56.12000 474.702
56.16000 412.259
56.20000 355.410
56.24000 324.392
56.28000 281.678
56.32000 262.689
56.36000 251.543
56.40000 222.386
56.44000 199.213
56.48000 184.629
56.52000 176.063
56.56000 170.801
56.60000 162.636
56.64000 161.324
56.68000 143.690
56.72000 143.509
56.76000 143.722
56.80000 148.639
56.84000 135.223
56.88000 124.326
56.92000 147.438
56.96000 135.544
57.00000 135.258
57.04000 138.089
57.08000 144.640
57.12000 136.960
57.16000 133.788
57.20000 133.984
57.24000 132.590
57.28000 128.547
57.32000 134.871
57.36000 123.445
57.40000 128.534
57.44000 126.240
57.48000 122.850
57.52000 122.544
57.56000 129.155
57.60000 116.556
57.64000 126.872
57.68000 113.712
57.72000 112.588
57.76000 130.810
57.80000 121.233
57.84000 137.867
57.88000 124.983
57.92000 122.322
57.96000 122.947
58.00000 129.140
58.04000 120.982
58.08000 122.738
58.12000 125.929
58.16000 133.329
58.20000 133.764
58.24000 122.276
58.28000 120.657
58.32000 133.881
58.36000 121.138
58.40000 119.332
58.44000 124.689
58.48000 120.574
58.52000 116.112
58.56000 116.712
58.60000 125.473
58.64000 126.058
58.68000 122.241
58.72000 128.330
58.76000 125.966
58.80000 125.745
58.84000 127.624
58.88000 119.575
58.92000 119.017
58.96000 116.088
59.00000 117.190
59.04000 118.448
59.08000 122.356
59.12000 117.198
59.16000 129.647
59.20000 115.722
59.24000 121.421
59.28000 119.877
59.32000 125.770
59.36000 115.554
59.40000 108.097
59.44000 114.313
59.48000 121.890
59.52000 122.279
59.56000 119.429
59.60000 117.560
59.64000 121.159
59.68000 124.518
59.72000 128.382
59.76000 115.264
59.80000 118.525
59.84000 117.581
59.88000 114.665
59.92000 106.193
59.96000 108.737
60.00000 115.570
60.04000 107.510
60.08000 118.400
60.12000 122.625
60.16000 120.897
60.20000 114.784
60.24000 118.150
60.28000 113.561
60.32000 115.970
60.36000 124.797
60.40000 118.331
60.44000 126.647
60.48000 122.293
60.52000 130.010
60.56000 112.243
60.60000 110.970
60.64000 110.905
60.68000 116.672
60.72000 117.717
60.76000 125.049
60.80000 124.140
60.84000 129.347
60.88000 125.808
60.92000 117.911
60.96000 124.731
61.00000 110.633
61.04000 121.608
61.08000 123.818
61.12000 127.520
61.16000 116.400
61.20000 118.981
61.24000 120.093
61.28000 129.276
61.32000 121.278
61.36000 126.946
61.40000 125.261
61.44000 133.122
61.48000 142.537
61.52000 166.852
61.56000 236.081
61.60000 305.574
61.64000 334.983
61.68000 344.410
61.72000 356.926
61.76000 328.114
61.80000 255.268
61.84000 186.021
61.88000 152.213
61.92000 145.696
61.96000 137.419
62.00000 142.211
62.04000 132.754
62.08000 137.830
62.12000 126.893
62.16000 134.250
62.20000 123.832
62.24000 126.514
62.28000 132.978
62.32000 149.126
62.36000 126.908
62.40000 145.449
62.44000 134.699
62.48000 131.954
62.52000 137.051
62.56000 134.520
62.60000 137.229
62.64000 133.890
62.68000 137.902
62.72000 135.176
62.76000 133.859
62.80000 124.438
62.84000 135.026
62.88000 138.224
62.92000 137.528
62.96000 133.109
63.00000 135.964
63.04000 150.262
63.08000 137.618
63.12000 136.445
63.16000 139.821
63.20000 142.272
63.24000 139.649
63.28000 136.782
63.32000 140.305
63.36000 132.789
63.40000 142.145
63.44000 133.120
63.48000 136.839
63.52000 141.961
63.56000 157.241
63.60000 135.740
63.64000 144.625
63.68000 143.825
63.72000 139.036
63.76000 138.377
63.80000 146.288
63.84000 142.333
63.88000 141.708
63.92000 149.941
63.96000 139.227
64.00000 143.741
64.04000 154.583
64.08000 148.273
64.12000 152.036
64.16000 156.419
64.20000 146.696
64.24000 149.451
64.28000 165.275
64.32000 155.006
64.36000 157.127
64.40000 165.079
64.44000 159.428
64.48000 173.758
64.52000 172.562
64.56000 165.785
64.60000 149.020
64.64000 180.311
64.68000 182.995
64.72000 185.127
64.76000 187.751
64.80000 178.168
64.84000 185.810
64.88000 192.144
64.92000 202.117
64.96000 186.290
65.00000 204.019
65.04000 203.679
65.08000 205.170
65.12000 211.114
65.16000 227.341
65.20000 235.804
65.24000 257.987
65.28000 265.492
65.32000 308.616
65.36000 307.467
65.40000 342.494
65.44000 376.326
65.48000 421.835
65.52000 460.142
65.56000 493.937
65.60000 564.735
65.64000 636.392
65.68000 896.407
65.72000 1331.632
65.76000 1944.547
65.80000 2411.311
65.84000 2585.546
65.88000 2576.514
65.92000 2417.145
65.96000 1925.287
66.00000 1240.343
66.04000 770.347
66.08000 571.678
66.12000 473.295
66.16000 451.529
66.20000 442.152
66.24000 469.509
66.28000 573.797
66.32000 672.069
66.36000 747.337
66.40000 790.101
66.44000 807.528
66.48000 727.356
66.52000 635.188
66.56000 512.102
66.60000 459.010
66.64000 406.091
66.68000 416.537
66.72000 395.006
66.76000 406.972
66.80000 392.480
66.84000 406.481
66.88000 402.893
66.92000 429.962
66.96000 435.888
67.00000 432.412
67.04000 431.971
67.08000 442.666
67.12000 445.218
67.16000 445.051
67.20000 452.544
67.24000 449.596
67.28000 433.897
67.32000 452.871
67.36000 450.363
67.40000 447.644
67.44000 483.996
67.48000 486.128
67.52000 489.213
67.56000 493.958
67.60000 494.920
67.64000 497.803
67.68000 482.085
67.72000 510.584
67.76000 515.681
67.80000 547.894
67.84000 533.546
67.88000 529.883
67.92000 553.217
67.96000 568.110
68.00000 587.507
68.04000 581.016
68.08000 594.482
68.12000 581.245
68.16000 614.308
68.20000 624.760
68.24000 622.802
68.28000 670.048
68.32000 662.439
68.36000 684.576
68.40000 711.644
68.44000 768.170
68.48000 788.440
68.52000 811.188
68.56000 901.396
68.60000 1040.722
68.64000 1202.226
68.68000 1446.194
68.72000 1654.237
68.76000 1902.102
68.80000 2196.844
68.84000 2567.477
68.88000 3375.131
68.92000 5994.719
68.96000 14588.972
69.00000 32174.898
69.04000 49231.313
69.08000 57300.082
69.12000 61157.371
69.16000 64907.594
69.20000 62494.176
69.24000 49200.488
69.28000 37041.191
69.32000 30925.963
69.36000 28618.660
69.40000 22999.260
69.44000 13344.432
69.48000 5792.200
69.52000 2705.619
69.56000 1668.237
69.60000 1331.185
69.64000 1114.174
69.68000 963.546
69.72000 850.592
69.76000 777.565
69.80000 743.680
69.84000 677.405
69.88000 634.560
69.92000 611.442
69.96000 581.426
70.00000 546.221