File: XRD/XRD/09-10-2025 Dep 8/XY Data/BTO_Mapping_Theta2Theta_09-10-2025_001_10_6-691_7-431.xy
20.00000 484.686
20.04000 480.029
20.08000 478.268
20.12000 485.763
20.16000 475.207
20.20000 505.993
20.24000 498.813
20.28000 495.618
20.32000 456.011
20.36000 494.651
20.40000 487.445
20.44000 465.912
20.48000 472.681
20.52000 481.833
20.56000 471.706
20.60000 473.725
20.64000 464.600
20.68000 466.891
20.72000 487.930
20.76000 474.247
20.80000 472.455
20.84000 470.874
20.88000 491.091
20.92000 496.305
20.96000 466.746
21.00000 471.352
21.04000 485.496
21.08000 471.770
21.12000 465.071
21.16000 498.183
21.20000 468.401
21.24000 491.789
21.28000 479.120
21.32000 470.420
21.36000 510.596
21.40000 482.145
21.44000 472.253
21.48000 472.345
21.52000 482.308
21.56000 488.839
21.60000 494.102
21.64000 495.627
21.68000 483.155
21.72000 479.027
21.76000 484.440
21.80000 506.396
21.84000 513.155
21.88000 520.897
21.92000 543.267
21.96000 553.042
22.00000 587.235
22.04000 607.394
22.08000 609.699
22.12000 583.839
22.16000 616.734
22.20000 616.128
22.24000 584.623
22.28000 582.444
22.32000 565.345
22.36000 539.420
22.40000 532.483
22.44000 512.001
22.48000 489.523
22.52000 488.719
22.56000 471.029
22.60000 463.184
22.64000 467.094
22.68000 428.723
22.72000 446.184
22.76000 438.609
22.80000 449.561
22.84000 434.990
22.88000 444.422
22.92000 450.817
22.96000 451.920
23.00000 441.945
23.04000 458.001
23.08000 456.767
23.12000 448.270
23.16000 435.359
23.20000 442.148
23.24000 444.431
23.28000 435.846
23.32000 446.315
23.36000 441.247
23.40000 434.795
23.44000 435.598
23.48000 425.387
23.52000 436.079
23.56000 449.788
23.60000 414.916
23.64000 438.186
23.68000 426.507
23.72000 406.989
23.76000 428.471
23.80000 436.424
23.84000 425.456
23.88000 441.995
23.92000 426.734
23.96000 426.241
24.00000 443.116
24.04000 447.308
24.08000 421.170
24.12000 429.355
24.16000 416.677
24.20000 425.712
24.24000 419.677
24.28000 418.623
24.32000 415.859
24.36000 420.145
24.40000 423.178
24.44000 410.544
24.48000 420.309
24.52000 415.104
24.56000 428.589
24.60000 405.968
24.64000 402.559
24.68000 404.522
24.72000 425.765
24.76000 410.808
24.80000 410.034
24.84000 417.122
24.88000 398.911
24.92000 427.300
24.96000 402.121
25.00000 429.534
25.04000 405.503
25.08000 402.124
25.12000 419.859
25.16000 416.086
25.20000 396.643
25.24000 400.484
25.28000 407.517
25.32000 409.493
25.36000 393.521
25.40000 404.744
25.44000 399.260
25.48000 409.421
25.52000 413.555
25.56000 384.205
25.60000 388.546
25.64000 434.441
25.68000 412.317
25.72000 397.039
25.76000 415.783
25.80000 410.861
25.84000 383.996
25.88000 410.245
25.92000 426.063
25.96000 417.583
26.00000 405.259
26.04000 400.822
26.08000 398.330
26.12000 390.454
26.16000 386.944
26.20000 381.787
26.24000 393.182
26.28000 376.967
26.32000 385.988
26.36000 398.905
26.40000 391.689
26.44000 374.306
26.48000 361.491
26.52000 381.430
26.56000 424.725
26.60000 376.194
26.64000 385.404
26.68000 384.776
26.72000 383.782
26.76000 391.684
26.80000 388.677
26.84000 400.901
26.88000 390.131
26.92000 383.187
26.96000 386.478
27.00000 383.596
27.04000 390.390
27.08000 390.808
27.12000 381.901
27.16000 395.651
27.20000 372.689
27.24000 393.829
27.28000 375.997
27.32000 384.341
27.36000 382.494
27.40000 388.015
27.44000 376.433
27.48000 367.206
27.52000 385.742
27.56000 378.815
27.60000 381.021
27.64000 384.085
27.68000 382.456
27.72000 393.595
27.76000 373.212
27.80000 375.243
27.84000 361.127
27.88000 364.358
27.92000 382.308
27.96000 368.511
28.00000 371.845
28.04000 382.190
28.08000 386.221
28.12000 388.020
28.16000 385.013
28.20000 370.561
28.24000 370.878
28.28000 366.662
28.32000 365.827
28.36000 370.825
28.40000 376.051
28.44000 375.682
28.48000 374.002
28.52000 368.204
28.56000 376.073
28.60000 375.858
28.64000 381.507
28.68000 370.976
28.72000 373.097
28.76000 370.879
28.80000 360.684
28.84000 371.583
28.88000 356.837
28.92000 358.556
28.96000 377.991
29.00000 373.787
29.04000 359.248
29.08000 366.413
29.12000 372.521
29.16000 364.414
29.20000 372.619
29.24000 349.771
29.28000 371.286
29.32000 361.701
29.36000 378.178
29.40000 369.698
29.44000 367.188
29.48000 354.319
29.52000 364.295
29.56000 379.741
29.60000 356.816
29.64000 352.745
29.68000 378.977
29.72000 369.855
29.76000 378.559
29.80000 378.341
29.84000 391.900
29.88000 409.648
29.92000 422.878
29.96000 434.978
30.00000 440.709
30.04000 450.336
30.08000 464.258
30.12000 455.368
30.16000 434.381
30.20000 443.118
30.24000 434.171
30.28000 415.792
30.32000 420.704
30.36000 408.967
30.40000 402.880
30.44000 396.028
30.48000 400.372
30.52000 408.838
30.56000 399.929
30.60000 392.160
30.64000 403.975
30.68000 402.553
30.72000 425.100
30.76000 427.012
30.80000 423.123
30.84000 443.693
30.88000 448.928
30.92000 473.814
30.96000 494.905
31.00000 527.275
31.04000 569.003
31.08000 640.893
31.12000 787.539
31.16000 976.075
31.20000 1255.763
31.24000 1572.587
31.28000 2137.324
31.32000 2593.396
31.36000 2912.943
31.40000 3132.272
31.44000 3088.674
31.48000 2865.535
31.52000 2448.726
31.56000 1978.307
31.60000 1545.485
31.64000 1206.073
31.68000 961.609
31.72000 760.004
31.76000 656.745
31.80000 554.332
31.84000 497.713
31.88000 471.151
31.92000 448.432
31.96000 423.892
32.00000 388.221
32.04000 388.093
32.08000 381.243
32.12000 374.308
32.16000 368.565
32.20000 360.475
32.24000 354.356
32.28000 347.114
32.32000 335.955
32.36000 323.910
32.40000 353.861
32.44000 339.809
32.48000 331.128
32.52000 323.886
32.56000 340.138
32.60000 341.283
32.64000 333.425
32.68000 327.717
32.72000 333.051
32.76000 311.602
32.80000 335.237
32.84000 327.777
32.88000 320.064
32.92000 328.170
32.96000 316.194
33.00000 301.213
33.04000 320.397
33.08000 302.025
33.12000 310.815
33.16000 304.631
33.20000 326.548
33.24000 306.181
33.28000 307.164
33.32000 297.038
33.36000 310.608
33.40000 300.396
33.44000 292.667
33.48000 296.920
33.52000 316.647
33.56000 321.123
33.60000 287.814
33.64000 301.485
33.68000 293.689
33.72000 305.218
33.76000 294.620
33.80000 306.488
33.84000 288.076
33.88000 303.040
33.92000 295.732
33.96000 296.963
34.00000 286.837
34.04000 288.071
34.08000 296.008
34.12000 287.151
34.16000 297.310
34.20000 281.395
34.24000 279.578
34.28000 287.951
34.32000 292.729
34.36000 280.637
34.40000 291.480
34.44000 289.826
34.48000 279.524
34.52000 283.200
34.56000 277.507
34.60000 281.603
34.64000 278.160
34.68000 283.172
34.72000 287.550
34.76000 279.685
34.80000 279.783
34.84000 283.495
34.88000 286.835
34.92000 286.760
34.96000 260.234
35.00000 286.178
35.04000 275.444
35.08000 278.696
35.12000 271.815
35.16000 274.903
35.20000 282.716
35.24000 274.370
35.28000 272.702
35.32000 273.239
35.36000 278.187
35.40000 259.285
35.44000 269.408
35.48000 267.271
35.52000 270.165
35.56000 272.147
35.60000 269.687
35.64000 270.255
35.68000 279.040
35.72000 283.255
35.76000 256.979
35.80000 266.685
35.84000 262.898
35.88000 261.712
35.92000 264.825
35.96000 268.146
36.00000 268.290
36.04000 256.862
36.08000 264.107
36.12000 268.635
36.16000 266.562
36.20000 240.286
36.24000 267.425
36.28000 270.273
36.32000 254.389
36.36000 248.270
36.40000 266.717
36.44000 259.968
36.48000 250.803
36.52000 261.289
36.56000 258.819
36.60000 250.863
36.64000 271.769
36.68000 258.297
36.72000 275.455
36.76000 263.603
36.80000 252.371
36.84000 267.942
36.88000 279.468
36.92000 271.063
36.96000 274.933
37.00000 279.942
37.04000 286.491
37.08000 282.160
37.12000 283.433
37.16000 282.679
37.20000 282.034
37.24000 269.883
37.28000 266.110
37.32000 267.846
37.36000 262.792
37.40000 263.511
37.44000 255.657
37.48000 250.357
37.52000 268.644
37.56000 249.412
37.60000 262.446
37.64000 260.100
37.68000 254.401
37.72000 244.977
37.76000 251.418
37.80000 254.469
37.84000 257.081
37.88000 270.328
37.92000 260.001
37.96000 269.040
38.00000 237.154
38.04000 256.596
38.08000 260.654
38.12000 263.611
38.16000 281.470
38.20000 279.513
38.24000 276.579
38.28000 287.448
38.32000 298.519
38.36000 308.549
38.40000 350.407
38.44000 377.624
38.48000 423.836
38.52000 472.246
38.56000 583.074
38.60000 703.362
38.64000 820.387
38.68000 956.174
38.72000 1052.719
38.76000 1055.361
38.80000 1000.702
38.84000 890.688
38.88000 760.477
38.92000 610.665
38.96000 481.289
39.00000 385.991
39.04000 342.233
39.08000 320.006
39.12000 289.070
39.16000 295.125
39.20000 270.434
39.24000 262.527
39.28000 259.693
39.32000 257.041
39.36000 257.483
39.40000 250.100
39.44000 261.017
39.48000 247.188
39.52000 242.973
39.56000 247.497
39.60000 238.251
39.64000 238.120
39.68000 249.628
39.72000 239.529
39.76000 240.311
39.80000 240.585
39.84000 232.441
39.88000 230.997
39.92000 226.243
39.96000 238.023
40.00000 224.473
40.04000 231.130
40.08000 241.441
40.12000 230.455
40.16000 231.042
40.20000 222.039
40.24000 230.797
40.28000 238.274
40.32000 229.402
40.36000 217.831
40.40000 207.638
40.44000 223.688
40.48000 221.138
40.52000 218.342
40.56000 220.595
40.60000 223.957
40.64000 222.328
40.68000 225.935
40.72000 224.987
40.76000 230.605
40.80000 220.252
40.84000 225.669
40.88000 215.075
40.92000 199.517
40.96000 213.769
41.00000 216.621
41.04000 217.360
41.08000 218.654
41.12000 223.123
41.16000 218.416
41.20000 200.780
41.24000 219.907
41.28000 215.672
41.32000 214.117
41.36000 212.956
41.40000 216.480
41.44000 220.898
41.48000 213.283
41.52000 214.339
41.56000 210.857
41.60000 210.387
41.64000 224.167
41.68000 204.287
41.72000 208.044
41.76000 207.174
41.80000 213.904
41.84000 225.431
41.88000 210.767
41.92000 212.957
41.96000 211.543
42.00000 211.430
42.04000 193.272
42.08000 223.220
42.12000 202.044
42.16000 208.449
42.20000 204.076
42.24000 204.474
42.28000 208.270
42.32000 199.557
42.36000 195.655
42.40000 205.980
42.44000 203.612
42.48000 213.058
42.52000 212.694
42.56000 216.001
42.60000 196.179
42.64000 186.802
42.68000 202.463
42.72000 196.007
42.76000 187.331
42.80000 204.169
42.84000 196.587
42.88000 209.909
42.92000 202.971
42.96000 203.858
43.00000 209.198
43.04000 194.360
43.08000 202.344
43.12000 201.243
43.16000 217.617
43.20000 211.118
43.24000 211.342
43.28000 194.197
43.32000 198.407
43.36000 191.326
43.40000 181.269
43.44000 195.253
43.48000 198.893
43.52000 199.133
43.56000 196.137
43.60000 194.954
43.64000 188.202
43.68000 188.674
43.72000 206.926
43.76000 205.599
43.80000 201.222
43.84000 202.122
43.88000 188.419
43.92000 202.152
43.96000 197.734
44.00000 197.744
44.04000 200.405
44.08000 191.707
44.12000 192.494
44.16000 198.664
44.20000 203.102
44.24000 203.730
44.28000 193.075
44.32000 195.456
44.36000 191.212
44.40000 191.035
44.44000 198.079
44.48000 197.506
44.52000 195.506
44.56000 198.931
44.60000 200.900
44.64000 198.261
44.68000 206.204
44.72000 198.347
44.76000 212.746
44.80000 228.212
44.84000 231.024
44.88000 249.484
44.92000 242.439
44.96000 266.805
45.00000 273.050
45.04000 278.207
45.08000 308.237
45.12000 307.422
45.16000 307.083
45.20000 300.467
45.24000 312.517
45.28000 291.783
45.32000 282.920
45.36000 286.977
45.40000 280.559
45.44000 256.337
45.48000 264.736
45.52000 258.512
45.56000 248.673
45.60000 239.457
45.64000 228.660
45.68000 222.696
45.72000 225.758
45.76000 206.947
45.80000 223.629
45.84000 211.712
45.88000 208.073
45.92000 196.753
45.96000 195.168
46.00000 210.182
46.04000 198.545
46.08000 202.283
46.12000 180.645
46.16000 193.183
46.20000 172.239
46.24000 198.696
46.28000 171.057
46.32000 185.982
46.36000 178.521
46.40000 182.768
46.44000 178.029
46.48000 181.234
46.52000 177.083
46.56000 180.767
46.60000 190.456
46.64000 166.059
46.68000 169.343
46.72000 179.539
46.76000 168.314
46.80000 164.989
46.84000 171.696
46.88000 164.424
46.92000 167.171
46.96000 161.513
47.00000 170.065
47.04000 163.235
47.08000 177.200
47.12000 182.561
47.16000 169.314
47.20000 163.605
47.24000 174.579
47.28000 170.658
47.32000 168.923
47.36000 169.038
47.40000 164.232
47.44000 148.374
47.48000 170.434
47.52000 161.573
47.56000 177.131
47.60000 168.583
47.64000 176.039
47.68000 166.356
47.72000 157.773
47.76000 148.903
47.80000 152.375
47.84000 159.034
47.88000 171.047
47.92000 165.929
47.96000 168.619
48.00000 165.220
48.04000 170.485
48.08000 166.827
48.12000 170.494
48.16000 156.861
48.20000 166.203
48.24000 153.450
48.28000 157.408
48.32000 154.142
48.36000 155.752
48.40000 164.791
48.44000 167.460
48.48000 160.428
48.52000 167.825
48.56000 157.906
48.60000 162.090
48.64000 162.415
48.68000 160.026
48.72000 162.407
48.76000 167.902
48.80000 146.544
48.84000 157.260
48.88000 151.442
48.92000 152.856
48.96000 159.550
49.00000 161.145
49.04000 150.630
49.08000 154.637
49.12000 153.008
49.16000 157.000
49.20000 158.731
49.24000 150.456
49.28000 148.816
49.32000 158.674
49.36000 159.718
49.40000 148.870
49.44000 162.224
49.48000 155.072
49.52000 155.393
49.56000 152.411
49.60000 151.937
49.64000 151.020
49.68000 154.450
49.72000 158.086
49.76000 146.832
49.80000 145.952
49.84000 163.434
49.88000 155.080
49.92000 162.526
49.96000 153.094
50.00000 152.485
50.04000 155.708
50.08000 165.791
50.12000 167.717
50.16000 147.782
50.20000 155.915
50.24000 151.559
50.28000 166.719
50.32000 161.666
50.36000 167.042
50.40000 172.382
50.44000 171.855
50.48000 177.360
50.52000 182.952
50.56000 197.908
50.60000 201.659
50.64000 199.129
50.68000 218.371
50.72000 220.236
50.76000 244.678
50.80000 222.921
50.84000 226.044
50.88000 222.386
50.92000 203.113
50.96000 201.083
51.00000 187.221
51.04000 188.849
51.08000 186.092
51.12000 174.062
51.16000 163.957
51.20000 164.380
51.24000 157.325
51.28000 153.869
51.32000 152.942
51.36000 151.125
51.40000 155.911
51.44000 147.079
51.48000 136.525
51.52000 147.458
51.56000 137.269
51.60000 146.168
51.64000 142.105
51.68000 149.556
51.72000 143.207
51.76000 142.621
51.80000 145.572
51.84000 145.400
51.88000 155.722
51.92000 149.643
51.96000 148.781
52.00000 145.418
52.04000 134.889
52.08000 145.782
52.12000 135.276
52.16000 143.653
52.20000 149.646
52.24000 138.264
52.28000 130.133
52.32000 138.099
52.36000 143.064
52.40000 145.135
52.44000 126.306
52.48000 147.731
52.52000 142.097
52.56000 148.641
52.60000 136.484
52.64000 134.587
52.68000 138.315
52.72000 143.662
52.76000 147.232
52.80000 139.608
52.84000 151.101
52.88000 139.961
52.92000 144.978
52.96000 141.123
53.00000 141.437
53.04000 147.159
53.08000 144.855
53.12000 154.003
53.16000 143.929
53.20000 149.425
53.24000 141.817
53.28000 157.817
53.32000 157.148
53.36000 147.323
53.40000 160.416
53.44000 150.962
53.48000 157.363
53.52000 154.844
53.56000 154.354
53.60000 151.709
53.64000 157.813
53.68000 141.889
53.72000 141.857
53.76000 137.447
53.80000 134.204
53.84000 138.305
53.88000 150.288
53.92000 146.594
53.96000 143.957
54.00000 147.258
54.04000 144.059
54.08000 157.834
54.12000 134.760
54.16000 135.686
54.20000 141.953
54.24000 138.249
54.28000 125.118
54.32000 142.628
54.36000 142.711
54.40000 141.413
54.44000 137.187
54.48000 141.642
54.52000 136.203
54.56000 141.732
54.60000 135.161
54.64000 138.906
54.68000 144.302
54.72000 151.124
54.76000 140.527
54.80000 146.490
54.84000 138.331
54.88000 132.029
54.92000 139.906
54.96000 151.430
55.00000 148.848
55.04000 137.173
55.08000 141.599
55.12000 139.012
55.16000 143.356
55.20000 141.383
55.24000 140.650
55.28000 150.758
55.32000 152.974
55.36000 149.119
55.40000 156.054
55.44000 155.616
55.48000 161.199
55.52000 166.877
55.56000 181.487
55.60000 193.452
55.64000 209.955
55.68000 220.500
55.72000 262.822
55.76000 291.485
55.80000 339.132
55.84000 397.079
55.88000 440.183
55.92000 499.757
55.96000 540.059
56.00000 561.142
56.04000 550.640
56.08000 530.970
56.12000 476.391
56.16000 431.892
56.20000 376.955
56.24000 327.686
56.28000 298.591
56.32000 251.288
56.36000 244.492
56.40000 211.583
56.44000 193.591
56.48000 190.864
56.52000 169.838
56.56000 167.621
56.60000 178.104
56.64000 160.703
56.68000 149.322
56.72000 142.860
56.76000 145.689
56.80000 139.717
56.84000 138.079
56.88000 147.089
56.92000 138.474
56.96000 137.022
57.00000 132.727
57.04000 136.200
57.08000 132.060
57.12000 124.890
57.16000 129.581
57.20000 136.667
57.24000 134.287
57.28000 125.088
57.32000 122.413
57.36000 133.556
57.40000 138.092
57.44000 130.900
57.48000 120.835
57.52000 125.377
57.56000 128.912
57.60000 137.556
57.64000 126.430
57.68000 121.939
57.72000 127.169
57.76000 134.811
57.80000 129.784
57.84000 127.295
57.88000 122.783
57.92000 133.258
57.96000 124.421
58.00000 131.146
58.04000 126.735
58.08000 133.929
58.12000 126.028
58.16000 123.289
58.20000 124.312
58.24000 120.442
58.28000 113.328
58.32000 118.083
58.36000 127.732
58.40000 125.360
58.44000 138.513
58.48000 123.709
58.52000 131.387
58.56000 121.048
58.60000 120.654
58.64000 125.480
58.68000 127.023
58.72000 119.183
58.76000 123.391
58.80000 121.896
58.84000 121.931
58.88000 113.151
58.92000 115.056
58.96000 119.355
59.00000 122.088
59.04000 126.706
59.08000 110.511
59.12000 121.501
59.16000 115.143
59.20000 114.178
59.24000 119.054
59.28000 121.211
59.32000 114.260
59.36000 112.182
59.40000 126.435
59.44000 122.496
59.48000 110.621
59.52000 115.909
59.56000 123.392
59.60000 121.292
59.64000 117.040
59.68000 121.507
59.72000 117.600
59.76000 124.787
59.80000 117.225
59.84000 117.476
59.88000 128.472
59.92000 121.482
59.96000 108.177
60.00000 116.749
60.04000 114.536
60.08000 107.536
60.12000 112.352
60.16000 118.488
60.20000 116.517
60.24000 119.595
60.28000 119.647
60.32000 108.263
60.36000 122.622
60.40000 121.596
60.44000 111.995
60.48000 118.554
60.52000 124.410
60.56000 124.883
60.60000 116.201
60.64000 115.484
60.68000 113.799
60.72000 116.388
60.76000 115.404
60.80000 118.997
60.84000 114.482
60.88000 128.319
60.92000 125.306
60.96000 126.890
61.00000 120.550
61.04000 127.650
61.08000 127.945
61.12000 131.875
61.16000 122.245
61.20000 128.658
61.24000 122.507
61.28000 119.257
61.32000 122.915
61.36000 127.924
61.40000 128.155
61.44000 132.005
61.48000 142.547
61.52000 163.316
61.56000 235.231
61.60000 300.588
61.64000 328.607
61.68000 340.366
61.72000 327.738
61.76000 300.576
61.80000 250.022
61.84000 174.029
61.88000 146.141
61.92000 141.030
61.96000 126.874
62.00000 131.258
62.04000 135.694
62.08000 126.822
62.12000 131.715
62.16000 127.138
62.20000 131.525
62.24000 136.956
62.28000 137.129
62.32000 125.018
62.36000 134.060
62.40000 134.623
62.44000 138.396
62.48000 143.441
62.52000 150.828
62.56000 139.116
62.60000 140.610
62.64000 121.432
62.68000 135.304
62.72000 133.234
62.76000 132.834
62.80000 139.541
62.84000 122.577
62.88000 134.391
62.92000 135.019
62.96000 133.101
63.00000 136.373
63.04000 136.299
63.08000 142.229
63.12000 138.928
63.16000 136.422
63.20000 147.905
63.24000 141.696
63.28000 141.000
63.32000 144.909
63.36000 131.894
63.40000 134.591
63.44000 140.601
63.48000 147.152
63.52000 139.671
63.56000 144.145
63.60000 136.935
63.64000 125.107
63.68000 151.605
63.72000 146.697
63.76000 139.089
63.80000 148.975
63.84000 143.168
63.88000 144.909
63.92000 143.148
63.96000 145.607
64.00000 145.139
64.04000 160.105
64.08000 152.460
64.12000 153.272
64.16000 150.292
64.20000 147.448
64.24000 159.385
64.28000 142.948
64.32000 149.055
64.36000 163.472
64.40000 159.355
64.44000 176.088
64.48000 175.993
64.52000 161.074
64.56000 167.139
64.60000 181.272
64.64000 175.441
64.68000 171.344
64.72000 159.915
64.76000 167.194
64.80000 179.690
64.84000 175.234
64.88000 179.170
64.92000 189.165
64.96000 195.973
65.00000 183.948
65.04000 205.541
65.08000 192.640
65.12000 221.887
65.16000 217.817
65.20000 231.589
65.24000 245.144
65.28000 258.568
65.32000 266.895
65.36000 299.501
65.40000 328.060
65.44000 374.821
65.48000 393.168
65.52000 443.051
65.56000 484.206
65.60000 546.455
65.64000 637.426
65.68000 832.636
65.72000 1218.958
65.76000 1769.211
65.80000 2210.061
65.84000 2395.335
65.88000 2388.500
65.92000 2244.167
65.96000 1732.775
66.00000 1161.783
66.04000 711.499
66.08000 549.694
66.12000 456.578
66.16000 433.104
66.20000 445.977
66.24000 441.338
66.28000 534.491
66.32000 633.886
66.36000 688.513
66.40000 729.283
66.44000 728.248
66.48000 692.981
66.52000 597.074
66.56000 465.070
66.60000 420.324
66.64000 424.063
66.68000 364.986
66.72000 385.808
66.76000 381.843
66.80000 382.815
66.84000 376.608
66.88000 388.779
66.92000 386.294
66.96000 405.490
67.00000 406.613
67.04000 412.435
67.08000 421.650
67.12000 405.871
67.16000 428.727
67.20000 405.422
67.24000 426.160
67.28000 431.854
67.32000 437.357
67.36000 429.423
67.40000 441.246
67.44000 465.050
67.48000 465.050
67.52000 456.335
67.56000 472.643
67.60000 454.994
67.64000 470.798
67.68000 470.185
67.72000 490.688
67.76000 495.057
67.80000 504.841
67.84000 511.141
67.88000 517.951
67.92000 529.510
67.96000 527.652
68.00000 536.767
68.04000 558.127
68.08000 564.954
68.12000 570.151
68.16000 579.464
68.20000 604.841
68.24000 613.649
68.28000 626.088
68.32000 641.447
68.36000 660.837
68.40000 682.358
68.44000 714.894
68.48000 734.773
68.52000 810.381
68.56000 873.701
68.60000 966.078
68.64000 1122.326
68.68000 1341.992
68.72000 1613.052
68.76000 1771.342
68.80000 2032.350
68.84000 2358.770
68.88000 3060.325
68.92000 5303.247
68.96000 13279.424
69.00000 29302.197
69.04000 44691.770
69.08000 52470.055
69.12000 55618.285
69.16000 59169.762
69.20000 57037.020
69.24000 45029.785
69.28000 33579.523
69.32000 28177.652
69.36000 26245.809
69.40000 21048.500
69.44000 12257.862
69.48000 5234.559
69.52000 2462.917
69.56000 1567.634
69.60000 1244.370
69.64000 1016.961
69.68000 917.704
69.72000 844.428
69.76000 756.063
69.80000 679.477
69.84000 634.550
69.88000 592.652
69.92000 581.144
69.96000 566.793
70.00000 546.709