File: XRD/XRD/09-10-2025 Dep 8/XY Data/BTO_Mapping_Theta2Theta_09-10-2025_001_49_-4-181_-39-781.xy
20.00000 479.202
20.04000 491.122
20.08000 499.253
20.12000 507.460
20.16000 496.408
20.20000 480.506
20.24000 474.023
20.28000 483.070
20.32000 467.707
20.36000 485.364
20.40000 479.746
20.44000 477.049
20.48000 481.631
20.52000 499.527
20.56000 477.447
20.60000 457.772
20.64000 474.649
20.68000 476.171
20.72000 489.497
20.76000 481.638
20.80000 479.799
20.84000 463.931
20.88000 482.601
20.92000 483.808
20.96000 466.133
21.00000 469.105
21.04000 476.474
21.08000 483.740
21.12000 496.147
21.16000 482.735
21.20000 482.975
21.24000 483.786
21.28000 481.644
21.32000 487.634
21.36000 461.551
21.40000 487.396
21.44000 480.041
21.48000 492.349
21.52000 482.926
21.56000 473.532
21.60000 488.735
21.64000 479.247
21.68000 494.170
21.72000 498.963
21.76000 523.557
21.80000 539.300
21.84000 563.102
21.88000 558.790
21.92000 602.909
21.96000 620.724
22.00000 665.960
22.04000 680.034
22.08000 676.143
22.12000 680.685
22.16000 647.611
22.20000 613.611
22.24000 595.328
22.28000 579.409
22.32000 539.188
22.36000 527.462
22.40000 524.807
22.44000 508.777
22.48000 479.037
22.52000 468.260
22.56000 486.147
22.60000 462.080
22.64000 448.663
22.68000 443.049
22.72000 457.544
22.76000 461.329
22.80000 445.833
22.84000 443.741
22.88000 430.248
22.92000 463.425
22.96000 449.115
23.00000 451.386
23.04000 446.086
23.08000 440.285
23.12000 441.552
23.16000 440.187
23.20000 449.261
23.24000 434.651
23.28000 429.293
23.32000 456.230
23.36000 444.798
23.40000 441.957
23.44000 425.718
23.48000 439.113
23.52000 448.930
23.56000 431.256
23.60000 429.806
23.64000 409.132
23.68000 418.673
23.72000 437.939
23.76000 435.857
23.80000 427.248
23.84000 422.400
23.88000 431.513
23.92000 420.343
23.96000 421.478
24.00000 421.741
24.04000 433.235
24.08000 446.191
24.12000 438.872
24.16000 426.378
24.20000 420.692
24.24000 386.026
24.28000 428.156
24.32000 430.218
24.36000 425.325
24.40000 413.365
24.44000 422.202
24.48000 418.679
24.52000 437.186
24.56000 421.810
24.60000 432.579
24.64000 419.159
24.68000 427.313
24.72000 413.643
24.76000 408.190
24.80000 412.571
24.84000 424.979
24.88000 422.792
24.92000 414.531
24.96000 420.055
25.00000 411.479
25.04000 409.980
25.08000 388.518
25.12000 414.528
25.16000 406.364
25.20000 405.612
25.24000 398.361
25.28000 404.054
25.32000 401.636
25.36000 399.931
25.40000 396.850
25.44000 412.927
25.48000 394.460
25.52000 409.249
25.56000 405.492
25.60000 413.538
25.64000 397.701
25.68000 398.913
25.72000 415.905
25.76000 404.275
25.80000 392.883
25.84000 424.603
25.88000 408.659
25.92000 387.917
25.96000 404.953
26.00000 385.004
26.04000 386.642
26.08000 412.932
26.12000 410.444
26.16000 401.169
26.20000 391.994
26.24000 395.226
26.28000 400.236
26.32000 407.248
26.36000 392.608
26.40000 391.603
26.44000 386.869
26.48000 386.207
26.52000 394.182
26.56000 388.578
26.60000 396.418
26.64000 377.459
26.68000 374.816
26.72000 372.180
26.76000 392.211
26.80000 410.352
26.84000 378.264
26.88000 384.016
26.92000 386.645
26.96000 376.733
27.00000 391.842
27.04000 396.591
27.08000 390.352
27.12000 392.886
27.16000 385.054
27.20000 381.708
27.24000 392.678
27.28000 377.095
27.32000 376.830
27.36000 382.120
27.40000 378.376
27.44000 382.326
27.48000 364.944
27.52000 379.136
27.56000 401.335
27.60000 366.433
27.64000 380.129
27.68000 363.273
27.72000 387.697
27.76000 369.788
27.80000 394.323
27.84000 381.511
27.88000 385.556
27.92000 352.224
27.96000 387.495
28.00000 373.336
28.04000 382.404
28.08000 376.702
28.12000 374.116
28.16000 376.717
28.20000 381.712
28.24000 373.270
28.28000 383.129
28.32000 371.394
28.36000 383.469
28.40000 400.474
28.44000 383.317
28.48000 362.909
28.52000 367.570
28.56000 365.424
28.60000 376.738
28.64000 364.452
28.68000 364.302
28.72000 385.588
28.76000 379.732
28.80000 370.702
28.84000 352.904
28.88000 365.904
28.92000 372.145
28.96000 381.046
29.00000 363.696
29.04000 355.804
29.08000 367.948
29.12000 375.900
29.16000 361.021
29.20000 363.321
29.24000 355.966
29.28000 361.042
29.32000 366.773
29.36000 372.423
29.40000 367.054
29.44000 366.666
29.48000 365.940
29.52000 351.995
29.56000 372.808
29.60000 371.910
29.64000 378.980
29.68000 379.895
29.72000 376.488
29.76000 366.953
29.80000 385.160
29.84000 389.496
29.88000 399.976
29.92000 411.216
29.96000 445.957
30.00000 450.456
30.04000 468.374
30.08000 459.794
30.12000 451.393
30.16000 447.589
30.20000 434.278
30.24000 425.246
30.28000 418.456
30.32000 408.837
30.36000 421.894
30.40000 414.502
30.44000 409.364
30.48000 390.183
30.52000 405.840
30.56000 422.551
30.60000 410.496
30.64000 402.751
30.68000 409.989
30.72000 409.596
30.76000 420.093
30.80000 422.119
30.84000 426.042
30.88000 431.699
30.92000 464.282
30.96000 481.115
31.00000 519.076
31.04000 579.272
31.08000 673.193
31.12000 819.139
31.16000 984.437
31.20000 1284.103
31.24000 1666.519
31.28000 2105.922
31.32000 2562.796
31.36000 2912.708
31.40000 3090.268
31.44000 3090.607
31.48000 2893.939
31.52000 2540.901
31.56000 2173.668
31.60000 1689.813
31.64000 1333.900
31.68000 1023.898
31.72000 856.150
31.76000 727.221
31.80000 606.417
31.84000 526.448
31.88000 475.655
31.92000 447.151
31.96000 415.605
32.00000 398.574
32.04000 393.027
32.08000 360.384
32.12000 361.406
32.16000 365.547
32.20000 364.593
32.24000 359.173
32.28000 334.431
32.32000 350.022
32.36000 348.372
32.40000 331.969
32.44000 344.110
32.48000 332.817
32.52000 339.814
32.56000 320.599
32.60000 343.845
32.64000 345.655
32.68000 319.598
32.72000 332.924
32.76000 325.267
32.80000 329.910
32.84000 336.734
32.88000 335.606
32.92000 329.716
32.96000 329.367
33.00000 322.913
33.04000 308.708
33.08000 305.297
33.12000 310.942
33.16000 314.362
33.20000 317.396
33.24000 308.873
33.28000 300.510
33.32000 316.680
33.36000 300.868
33.40000 315.863
33.44000 304.497
33.48000 303.739
33.52000 306.718
33.56000 301.377
33.60000 294.607
33.64000 304.029
33.68000 300.960
33.72000 291.836
33.76000 307.123
33.80000 299.372
33.84000 292.459
33.88000 306.310
33.92000 285.118
33.96000 280.282
34.00000 289.364
34.04000 296.249
34.08000 297.280
34.12000 299.566
34.16000 298.243
34.20000 298.137
34.24000 274.203
34.28000 274.443
34.32000 287.435
34.36000 287.726
34.40000 291.038
34.44000 279.990
34.48000 302.192
34.52000 281.229
34.56000 291.605
34.60000 283.858
34.64000 287.322
34.68000 277.166
34.72000 282.458
34.76000 289.404
34.80000 282.563
34.84000 282.546
34.88000 287.137
34.92000 286.171
34.96000 273.714
35.00000 286.466
35.04000 285.958
35.08000 277.142
35.12000 288.411
35.16000 276.808
35.20000 266.047
35.24000 275.022
35.28000 281.153
35.32000 268.490
35.36000 267.425
35.40000 291.345
35.44000 269.553
35.48000 275.105
35.52000 275.567
35.56000 276.274
35.60000 259.501
35.64000 270.718
35.68000 258.613
35.72000 273.340
35.76000 258.383
35.80000 252.426
35.84000 263.239
35.88000 277.014
35.92000 279.201
35.96000 268.351
36.00000 268.070
36.04000 269.251
36.08000 253.264
36.12000 282.394
36.16000 265.652
36.20000 274.727
36.24000 268.259
36.28000 263.215
36.32000 253.741
36.36000 267.031
36.40000 268.219
36.44000 254.826
36.48000 273.769
36.52000 259.923
36.56000 264.964
36.60000 262.419
36.64000 274.839
36.68000 278.737
36.72000 283.744
36.76000 255.983
36.80000 270.236
36.84000 278.086
36.88000 262.003
36.92000 267.410
36.96000 289.492
37.00000 291.014
37.04000 272.557
37.08000 290.500
37.12000 274.439
37.16000 280.271
37.20000 285.794
37.24000 271.262
37.28000 279.989
37.32000 269.689
37.36000 254.827
37.40000 275.691
37.44000 265.302
37.48000 262.610
37.52000 260.495
37.56000 249.625
37.60000 256.317
37.64000 274.581
37.68000 278.215
37.72000 257.813
37.76000 273.389
37.80000 259.070
37.84000 277.123
37.88000 256.606
37.92000 265.616
37.96000 248.084
38.00000 259.677
38.04000 264.558
38.08000 258.801
38.12000 282.499
38.16000 261.850
38.20000 279.674
38.24000 286.431
38.28000 303.997
38.32000 316.219
38.36000 320.047
38.40000 344.852
38.44000 374.511
38.48000 423.660
38.52000 505.750
38.56000 597.922
38.60000 714.139
38.64000 798.315
38.68000 877.714
38.72000 947.911
38.76000 922.135
38.80000 835.808
38.84000 750.628
38.88000 628.721
38.92000 535.175
38.96000 450.294
39.00000 383.236
39.04000 353.844
39.08000 315.657
39.12000 278.574
39.16000 279.051
39.20000 272.661
39.24000 260.259
39.28000 251.860
39.32000 252.924
39.36000 258.719
39.40000 252.533
39.44000 237.191
39.48000 243.082
39.52000 244.826
39.56000 246.469
39.60000 246.112
39.64000 263.441
39.68000 238.848
39.72000 248.399
39.76000 250.145
39.80000 232.041
39.84000 237.152
39.88000 241.020
39.92000 228.891
39.96000 239.059
40.00000 224.315
40.04000 230.452
40.08000 216.362
40.12000 224.386
40.16000 228.748
40.20000 232.964
40.24000 231.675
40.28000 229.291
40.32000 229.269
40.36000 216.724
40.40000 225.257
40.44000 228.868
40.48000 230.178
40.52000 215.943
40.56000 229.376
40.60000 236.485
40.64000 232.326
40.68000 219.404
40.72000 219.513
40.76000 223.171
40.80000 225.626
40.84000 219.295
40.88000 230.590
40.92000 225.565
40.96000 216.971
41.00000 227.921
41.04000 223.802
41.08000 216.170
41.12000 214.205
41.16000 224.173
41.20000 207.136
41.24000 217.390
41.28000 211.681
41.32000 209.718
41.36000 221.248
41.40000 222.627
41.44000 225.035
41.48000 216.693
41.52000 218.247
41.56000 207.134
41.60000 203.438
41.64000 208.176
41.68000 209.445
41.72000 222.642
41.76000 216.497
41.80000 209.900
41.84000 219.237
41.88000 214.909
41.92000 213.933
41.96000 212.991
42.00000 209.798
42.04000 211.433
42.08000 211.760
42.12000 207.576
42.16000 208.944
42.20000 200.618
42.24000 194.477
42.28000 206.946
42.32000 209.474
42.36000 194.692
42.40000 207.109
42.44000 216.375
42.48000 190.679
42.52000 204.280
42.56000 211.409
42.60000 212.577
42.64000 205.242
42.68000 194.980
42.72000 203.620
42.76000 208.719
42.80000 202.824
42.84000 215.364
42.88000 206.310
42.92000 200.891
42.96000 202.179
43.00000 213.835
43.04000 198.867
43.08000 209.282
43.12000 217.406
43.16000 220.316
43.20000 210.558
43.24000 203.948
43.28000 199.963
43.32000 197.942
43.36000 212.759
43.40000 208.371
43.44000 193.187
43.48000 200.250
43.52000 207.860
43.56000 203.465
43.60000 204.769
43.64000 208.249
43.68000 197.085
43.72000 200.427
43.76000 209.398
43.80000 196.639
43.84000 204.930
43.88000 193.453
43.92000 190.200
43.96000 195.889
44.00000 206.824
44.04000 215.488
44.08000 199.429
44.12000 200.600
44.16000 201.479
44.20000 194.513
44.24000 194.967
44.28000 194.862
44.32000 205.872
44.36000 206.948
44.40000 203.249
44.44000 209.259
44.48000 207.415
44.52000 211.382
44.56000 210.334
44.60000 218.002
44.64000 235.919
44.68000 230.525
44.72000 236.047
44.76000 239.133
44.80000 277.843
44.84000 282.846
44.88000 293.382
44.92000 324.991
44.96000 344.957
45.00000 354.116
45.04000 362.032
45.08000 368.008
45.12000 380.645
45.16000 381.786
45.20000 369.886
45.24000 338.221
45.28000 314.262
45.32000 305.100
45.36000 270.242
45.40000 274.349
45.44000 270.794
45.48000 259.179
45.52000 253.112
45.56000 237.975
45.60000 232.430
45.64000 219.611
45.68000 207.813
45.72000 222.196
45.76000 216.875
45.80000 192.588
45.84000 200.582
45.88000 202.765
45.92000 194.975
45.96000 186.621
46.00000 188.181
46.04000 188.285
46.08000 198.821
46.12000 187.317
46.16000 177.604
46.20000 173.161
46.24000 191.063
46.28000 184.744
46.32000 177.682
46.36000 182.917
46.40000 196.753
46.44000 182.317
46.48000 187.024
46.52000 184.280
46.56000 173.565
46.60000 178.335
46.64000 183.578
46.68000 159.568
46.72000 175.025
46.76000 178.757
46.80000 173.256
46.84000 168.245
46.88000 173.787
46.92000 185.509
46.96000 170.393
47.00000 175.207
47.04000 170.401
47.08000 186.907
47.12000 175.066
47.16000 171.050
47.20000 178.816
47.24000 158.778
47.28000 162.760
47.32000 165.130
47.36000 168.905
47.40000 168.840
47.44000 168.420
47.48000 159.858
47.52000 162.983
47.56000 158.400
47.60000 157.267
47.64000 166.385
47.68000 169.546
47.72000 162.685
47.76000 158.980
47.80000 172.687
47.84000 170.948
47.88000 155.278
47.92000 152.103
47.96000 158.359
48.00000 170.791
48.04000 157.958
48.08000 163.493
48.12000 160.434
48.16000 175.385
48.20000 162.473
48.24000 172.429
48.28000 150.491
48.32000 163.344
48.36000 155.635
48.40000 175.077
48.44000 162.226
48.48000 171.781
48.52000 162.975
48.56000 158.973
48.60000 161.866
48.64000 161.232
48.68000 169.516
48.72000 163.959
48.76000 163.807
48.80000 157.153
48.84000 155.334
48.88000 159.043
48.92000 169.411
48.96000 162.272
49.00000 144.128
49.04000 148.902
49.08000 157.844
49.12000 162.863
49.16000 168.482
49.20000 160.854
49.24000 157.844
49.28000 158.646
49.32000 162.859
49.36000 163.966
49.40000 165.706
49.44000 162.169
49.48000 162.694
49.52000 159.290
49.56000 165.120
49.60000 160.526
49.64000 161.087
49.68000 157.783
49.72000 158.399
49.76000 155.884
49.80000 155.854
49.84000 153.428
49.88000 149.065
49.92000 156.384
49.96000 159.831
50.00000 155.689
50.04000 157.254
50.08000 165.861
50.12000 162.176
50.16000 164.107
50.20000 168.396
50.24000 161.824
50.28000 164.042
50.32000 170.236
50.36000 166.701
50.40000 173.581
50.44000 194.954
50.48000 196.619
50.52000 207.211
50.56000 214.552
50.60000 227.663
50.64000 234.601
50.68000 242.183
50.72000 244.228
50.76000 251.374
50.80000 247.830
50.84000 232.999
50.88000 237.792
50.92000 235.024
50.96000 214.832
51.00000 200.905
51.04000 202.921
51.08000 182.261
51.12000 175.709
51.16000 168.559
51.20000 170.800
51.24000 171.516
51.28000 162.772
51.32000 175.777
51.36000 162.206
51.40000 148.472
51.44000 156.073
51.48000 155.817
51.52000 150.357
51.56000 145.501
51.60000 154.894
51.64000 148.087
51.68000 147.943
51.72000 145.423
51.76000 149.816
51.80000 154.946
51.84000 142.498
51.88000 151.608
51.92000 142.800
51.96000 150.413
52.00000 144.762
52.04000 138.733
52.08000 152.036
52.12000 148.655
52.16000 148.324
52.20000 144.361
52.24000 150.945
52.28000 141.608
52.32000 146.347
52.36000 142.337
52.40000 143.401
52.44000 138.012
52.48000 144.050
52.52000 138.743
52.56000 149.563
52.60000 142.633
52.64000 137.967
52.68000 149.436
52.72000 146.862
52.76000 137.296
52.80000 145.117
52.84000 136.467
52.88000 144.790
52.92000 152.936
52.96000 134.306
53.00000 139.035
53.04000 150.882
53.08000 145.233
53.12000 141.203
53.16000 148.302
53.20000 140.705
53.24000 160.064
53.28000 156.424
53.32000 156.803
53.36000 159.997
53.40000 154.850
53.44000 158.063
53.48000 158.241
53.52000 153.408
53.56000 164.175
53.60000 145.774
53.64000 148.011
53.68000 144.618
53.72000 145.717
53.76000 146.528
53.80000 140.361
53.84000 141.215
53.88000 143.854
53.92000 137.319
53.96000 145.189
54.00000 134.950
54.04000 143.355
54.08000 148.748
54.12000 136.322
54.16000 135.729
54.20000 132.428
54.24000 147.929
54.28000 142.786
54.32000 140.646
54.36000 133.670
54.40000 137.559
54.44000 135.363
54.48000 142.179
54.52000 134.518
54.56000 139.093
54.60000 140.953
54.64000 146.205
54.68000 140.315
54.72000 141.519
54.76000 144.204
54.80000 140.471
54.84000 141.483
54.88000 159.540
54.92000 140.879
54.96000 145.154
55.00000 144.505
55.04000 131.033
55.08000 141.931
55.12000 148.392
55.16000 149.204
55.20000 153.192
55.24000 147.225
55.28000 142.553
55.32000 159.658
55.36000 157.809
55.40000 161.236
55.44000 160.354
55.48000 177.331
55.52000 195.185
55.56000 206.290
55.60000 215.708
55.64000 252.360
55.68000 277.032
55.72000 313.037
55.76000 352.474
55.80000 424.378
55.84000 480.686
55.88000 508.434
55.92000 550.493
55.96000 583.177
56.00000 588.501
56.04000 578.091
56.08000 510.635
56.12000 479.344
56.16000 416.801
56.20000 393.522
56.24000 337.854
56.28000 307.835
56.32000 261.909
56.36000 233.226
56.40000 216.409
56.44000 209.503
56.48000 191.352
56.52000 184.450
56.56000 182.033
56.60000 170.520
56.64000 165.999
56.68000 161.046
56.72000 153.103
56.76000 142.107
56.80000 152.682
56.84000 142.271
56.88000 129.885
56.92000 134.830
56.96000 128.248
57.00000 147.675
57.04000 135.195
57.08000 130.585
57.12000 132.488
57.16000 126.701
57.20000 125.992
57.24000 128.766
57.28000 122.515
57.32000 119.771
57.36000 129.018
57.40000 130.421
57.44000 136.745
57.48000 122.328
57.52000 132.953
57.56000 129.589
57.60000 125.829
57.64000 134.888
57.68000 132.260
57.72000 119.769
57.76000 127.760
57.80000 134.957
57.84000 127.715
57.88000 126.799
57.92000 129.998
57.96000 126.893
58.00000 127.827
58.04000 122.133
58.08000 121.488
58.12000 116.832
58.16000 123.345
58.20000 130.903
58.24000 128.938
58.28000 127.483
58.32000 126.063
58.36000 118.231
58.40000 123.770
58.44000 124.742
58.48000 110.376
58.52000 118.360
58.56000 131.103
58.60000 124.210
58.64000 126.676
58.68000 126.632
58.72000 122.974
58.76000 110.329
58.80000 128.034
58.84000 133.407
58.88000 113.125
58.92000 128.961
58.96000 119.947
59.00000 129.399
59.04000 124.773
59.08000 121.707
59.12000 123.641
59.16000 126.455
59.20000 115.395
59.24000 113.460
59.28000 119.245
59.32000 116.341
59.36000 119.992
59.40000 127.991
59.44000 120.797
59.48000 119.363
59.52000 119.422
59.56000 120.716
59.60000 114.611
59.64000 125.702
59.68000 126.295
59.72000 126.218
59.76000 109.994
59.80000 116.044
59.84000 109.857
59.88000 120.776
59.92000 122.373
59.96000 127.290
60.00000 121.186
60.04000 114.284
60.08000 120.288
60.12000 117.946
60.16000 119.142
60.20000 126.760
60.24000 117.120
60.28000 126.481
60.32000 125.566
60.36000 123.173
60.40000 118.783
60.44000 115.033
60.48000 112.845
60.52000 120.725
60.56000 122.771
60.60000 109.126
60.64000 108.307
60.68000 114.226
60.72000 123.203
60.76000 119.767
60.80000 120.762
60.84000 112.902
60.88000 123.258
60.92000 129.361
60.96000 116.007
61.00000 118.161
61.04000 117.209
61.08000 121.169
61.12000 126.351
61.16000 128.805
61.20000 117.330
61.24000 121.189
61.28000 128.476
61.32000 118.859
61.36000 120.995
61.40000 122.538
61.44000 130.519
61.48000 139.717
61.52000 192.698
61.56000 246.942
61.60000 344.746
61.64000 402.510
61.68000 427.858
61.72000 436.371
61.76000 399.038
61.80000 325.665
61.84000 219.853
61.88000 163.770
61.92000 141.002
61.96000 142.718
62.00000 141.404
62.04000 150.131
62.08000 144.563
62.12000 133.530
62.16000 132.267
62.20000 132.378
62.24000 140.731
62.28000 134.152
62.32000 127.215
62.36000 139.217
62.40000 138.744
62.44000 136.869
62.48000 141.573
62.52000 144.904
62.56000 149.815
62.60000 150.532
62.64000 134.332
62.68000 136.504
62.72000 130.566
62.76000 126.545
62.80000 137.931
62.84000 138.607
62.88000 147.135
62.92000 143.663
62.96000 144.777
63.00000 141.507
63.04000 139.978
63.08000 139.934
63.12000 132.691
63.16000 136.666
63.20000 139.729
63.24000 155.885
63.28000 146.462
63.32000 140.417
63.36000 144.598
63.40000 137.557
63.44000 148.153
63.48000 148.232
63.52000 135.884
63.56000 151.744
63.60000 144.064
63.64000 152.745
63.68000 142.511
63.72000 138.647
63.76000 150.098
63.80000 149.192
63.84000 151.174
63.88000 136.333
63.92000 148.502
63.96000 159.513
64.00000 140.724
64.04000 142.498
64.08000 155.612
64.12000 157.400
64.16000 167.228
64.20000 157.939
64.24000 162.111
64.28000 163.096
64.32000 166.352
64.36000 157.450
64.40000 167.012
64.44000 178.518
64.48000 184.787
64.52000 168.950
64.56000 170.266
64.60000 180.870
64.64000 182.803
64.68000 187.787
64.72000 202.898
64.76000 182.304
64.80000 181.987
64.84000 186.392
64.88000 196.005
64.92000 198.235
64.96000 207.937
65.00000 213.002
65.04000 234.725
65.08000 236.222
65.12000 235.530
65.16000 247.823
65.20000 259.072
65.24000 272.960
65.28000 295.300
65.32000 302.698
65.36000 325.343
65.40000 356.481
65.44000 378.976
65.48000 430.953
65.52000 469.479
65.56000 521.557
65.60000 586.928
65.64000 680.914
65.68000 932.476
65.72000 1469.083
65.76000 2240.351
65.80000 2954.564
65.84000 3250.568
65.88000 3324.552
65.92000 3180.335
65.96000 2636.278
66.00000 1776.736
66.04000 1091.073
66.08000 749.693
66.12000 579.742
66.16000 520.370
66.20000 513.223
66.24000 548.409
66.28000 641.744
66.32000 790.216
66.36000 895.664
66.40000 932.964
66.44000 945.245
66.48000 891.993
66.52000 808.997
66.56000 655.970
66.60000 535.742
66.64000 487.971
66.68000 466.435
66.72000 452.381
66.76000 465.835
66.80000 466.125
66.84000 458.998
66.88000 462.253
66.92000 465.670
66.96000 456.884
67.00000 473.639
67.04000 476.893
67.08000 480.622
67.12000 492.760
67.16000 495.661
67.20000 523.557
67.24000 495.452
67.28000 490.530
67.32000 511.534
67.36000 514.812
67.40000 520.308
67.44000 517.732
67.48000 553.248
67.52000 566.530
67.56000 556.781
67.60000 577.510
67.64000 556.360
67.68000 562.458
67.72000 571.328
67.76000 594.536
67.80000 599.286
67.84000 618.051
67.88000 612.686
67.92000 625.133
67.96000 631.798
68.00000 643.329
68.04000 628.457
68.08000 659.671
68.12000 683.854
68.16000 690.770
68.20000 695.675
68.24000 730.739
68.28000 735.370
68.32000 753.622
68.36000 804.836
68.40000 827.081
68.44000 847.787
68.48000 909.208
68.52000 949.293
68.56000 1027.526
68.60000 1174.159
68.64000 1373.229
68.68000 1668.014
68.72000 1945.365
68.76000 2283.335
68.80000 2623.779
68.84000 3119.525
68.88000 4112.614
68.92000 6838.603
68.96000 15534.370
69.00000 35473.555
69.04000 58402.301
69.08000 72266.563
69.12000 77742.797
69.16000 82045.719
69.20000 81882.398
69.24000 68045.547
69.28000 52194.270
69.32000 41233.367
69.36000 37461.883
69.40000 31690.607
69.44000 20145.709
69.48000 9523.931
69.52000 4274.888
69.56000 2250.038
69.60000 1645.633
69.64000 1318.351
69.68000 1143.978
69.72000 996.857
69.76000 905.041
69.80000 816.904
69.84000 741.355
69.88000 716.968
69.92000 680.712
69.96000 637.494
70.00000 607.128