File: XRD/XRD/09-10-2025 Dep 8/XY Data/BTO_Mapping_Theta2Theta_09-10-2025_001_44_-15-000_-25-981.xy
20.00000 497.185
20.04000 507.030
20.08000 490.793
20.12000 485.571
20.16000 494.205
20.20000 489.973
20.24000 480.400
20.28000 474.028
20.32000 488.308
20.36000 482.526
20.40000 483.241
20.44000 484.260
20.48000 494.542
20.52000 488.576
20.56000 490.645
20.60000 489.808
20.64000 485.084
20.68000 489.899
20.72000 492.321
20.76000 476.688
20.80000 489.317
20.84000 488.241
20.88000 491.941
20.92000 487.813
20.96000 478.825
21.00000 492.515
21.04000 507.636
21.08000 485.222
21.12000 476.301
21.16000 479.535
21.20000 487.877
21.24000 485.511
21.28000 480.265
21.32000 483.144
21.36000 505.720
21.40000 488.957
21.44000 486.000
21.48000 472.665
21.52000 492.666
21.56000 474.446
21.60000 476.943
21.64000 506.716
21.68000 505.911
21.72000 538.607
21.76000 534.799
21.80000 569.733
21.84000 583.522
21.88000 608.129
21.92000 654.130
21.96000 675.864
22.00000 700.060
22.04000 703.979
22.08000 720.842
22.12000 680.255
22.16000 662.942
22.20000 619.161
22.24000 607.729
22.28000 563.924
22.32000 533.722
22.36000 514.241
22.40000 484.008
22.44000 490.790
22.48000 477.970
22.52000 462.995
22.56000 470.041
22.60000 437.970
22.64000 462.858
22.68000 439.531
22.72000 454.045
22.76000 442.295
22.80000 459.227
22.84000 459.447
22.88000 467.537
22.92000 452.433
22.96000 446.533
23.00000 450.510
23.04000 444.997
23.08000 437.371
23.12000 438.425
23.16000 451.412
23.20000 445.265
23.24000 441.939
23.28000 443.132
23.32000 445.761
23.36000 433.296
23.40000 446.326
23.44000 454.116
23.48000 437.956
23.52000 443.861
23.56000 432.212
23.60000 444.543
23.64000 422.816
23.68000 432.078
23.72000 433.836
23.76000 435.806
23.80000 421.917
23.84000 434.950
23.88000 437.529
23.92000 438.636
23.96000 428.466
24.00000 441.841
24.04000 418.641
24.08000 414.202
24.12000 430.157
24.16000 421.259
24.20000 432.151
24.24000 449.775
24.28000 407.050
24.32000 414.037
24.36000 415.591
24.40000 419.823
24.44000 440.742
24.48000 425.304
24.52000 426.486
24.56000 436.382
24.60000 417.698
24.64000 417.589
24.68000 439.832
24.72000 418.625
24.76000 412.274
24.80000 421.027
24.84000 410.274
24.88000 407.715
24.92000 410.968
24.96000 419.757
25.00000 428.516
25.04000 397.762
25.08000 432.592
25.12000 401.613
25.16000 415.980
25.20000 398.793
25.24000 411.781
25.28000 392.914
25.32000 406.097
25.36000 412.887
25.40000 408.097
25.44000 396.014
25.48000 418.306
25.52000 401.150
25.56000 415.131
25.60000 397.642
25.64000 403.709
25.68000 401.627
25.72000 404.244
25.76000 405.673
25.80000 411.440
25.84000 406.874
25.88000 408.992
25.92000 390.909
25.96000 398.026
26.00000 390.396
26.04000 385.650
26.08000 406.295
26.12000 399.922
26.16000 410.139
26.20000 407.922
26.24000 387.564
26.28000 386.856
26.32000 399.633
26.36000 405.322
26.40000 388.091
26.44000 391.079
26.48000 404.299
26.52000 400.971
26.56000 403.207
26.60000 384.810
26.64000 391.736
26.68000 389.368
26.72000 382.604
26.76000 396.689
26.80000 408.511
26.84000 403.209
26.88000 383.378
26.92000 384.737
26.96000 386.621
27.00000 377.196
27.04000 390.390
27.08000 390.768
27.12000 376.054
27.16000 385.719
27.20000 380.517
27.24000 381.947
27.28000 381.928
27.32000 386.525
27.36000 382.584
27.40000 387.418
27.44000 380.290
27.48000 379.608
27.52000 374.849
27.56000 384.635
27.60000 380.120
27.64000 377.044
27.68000 365.788
27.72000 386.017
27.76000 377.843
27.80000 387.257
27.84000 379.919
27.88000 381.650
27.92000 378.821
27.96000 366.649
28.00000 388.203
28.04000 378.527
28.08000 377.632
28.12000 374.116
28.16000 379.558
28.20000 376.663
28.24000 378.918
28.28000 389.173
28.32000 370.866
28.36000 373.884
28.40000 385.684
28.44000 379.666
28.48000 386.812
28.52000 371.026
28.56000 375.189
28.60000 372.228
28.64000 386.681
28.68000 374.823
28.72000 376.722
28.76000 359.026
28.80000 370.999
28.84000 359.687
28.88000 373.175
28.92000 351.322
28.96000 374.231
29.00000 369.897
29.04000 378.467
29.08000 379.108
29.12000 380.806
29.16000 353.222
29.20000 366.020
29.24000 374.189
29.28000 361.360
29.32000 357.977
29.36000 361.592
29.40000 366.747
29.44000 365.194
29.48000 363.401
29.52000 366.428
29.56000 386.993
29.60000 375.202
29.64000 374.979
29.68000 364.001
29.72000 372.661
29.76000 373.294
29.80000 388.919
29.84000 399.743
29.88000 406.435
29.92000 444.143
29.96000 475.077
30.00000 485.664
30.04000 492.368
30.08000 466.969
30.12000 462.781
30.16000 440.989
30.20000 448.391
30.24000 423.876
30.28000 424.560
30.32000 420.179
30.36000 406.849
30.40000 413.101
30.44000 390.229
30.48000 396.219
30.52000 384.094
30.56000 380.865
30.60000 391.470
30.64000 399.150
30.68000 409.820
30.72000 406.459
30.76000 404.719
30.80000 410.432
30.84000 437.092
30.88000 457.220
30.92000 458.078
30.96000 516.083
31.00000 560.893
31.04000 619.837
31.08000 732.384
31.12000 939.296
31.16000 1203.443
31.20000 1554.165
31.24000 1963.796
31.28000 2539.098
31.32000 2907.921
31.36000 3227.553
31.40000 3284.010
31.44000 3193.376
31.48000 2805.273
31.52000 2373.441
31.56000 1905.874
31.60000 1437.641
31.64000 1112.992
31.68000 867.166
31.72000 723.319
31.76000 608.096
31.80000 543.341
31.84000 478.797
31.88000 445.423
31.92000 426.222
31.96000 403.466
32.00000 386.548
32.04000 375.828
32.08000 368.316
32.12000 368.933
32.16000 355.941
32.20000 359.844
32.24000 353.110
32.28000 350.623
32.32000 356.898
32.36000 330.475
32.40000 351.875
32.44000 342.041
32.48000 340.483
32.52000 335.349
32.56000 346.786
32.60000 330.199
32.64000 340.570
32.68000 344.356
32.72000 337.617
32.76000 335.600
32.80000 312.197
32.84000 318.085
32.88000 317.664
32.92000 324.814
32.96000 327.572
33.00000 301.164
33.04000 312.027
33.08000 315.312
33.12000 306.526
33.16000 299.908
33.20000 329.641
33.24000 304.047
33.28000 322.275
33.32000 307.944
33.36000 307.242
33.40000 307.851
33.44000 298.602
33.48000 296.918
33.52000 293.067
33.56000 305.833
33.60000 312.234
33.64000 304.527
33.68000 309.805
33.72000 311.250
33.76000 300.211
33.80000 290.476
33.84000 301.799
33.88000 300.605
33.92000 303.629
33.96000 291.415
34.00000 289.106
34.04000 306.520
34.08000 293.895
34.12000 298.836
34.16000 285.510
34.20000 302.802
34.24000 278.875
34.28000 273.781
34.32000 290.126
34.36000 306.361
34.40000 275.654
34.44000 297.124
34.48000 296.358
34.52000 280.691
34.56000 288.663
34.60000 280.421
34.64000 290.380
34.68000 275.278
34.72000 290.079
34.76000 294.756
34.80000 270.722
34.84000 261.588
34.88000 291.085
34.92000 288.354
34.96000 282.996
35.00000 290.124
35.04000 268.914
35.08000 273.146
35.12000 268.223
35.16000 274.170
35.20000 269.864
35.24000 276.157
35.28000 258.901
35.32000 274.378
35.36000 279.812
35.40000 285.578
35.44000 278.252
35.48000 282.968
35.52000 269.161
35.56000 257.014
35.60000 259.336
35.64000 267.671
35.68000 262.774
35.72000 272.564
35.76000 267.318
35.80000 273.349
35.84000 273.880
35.88000 264.819
35.92000 266.166
35.96000 272.790
36.00000 277.029
36.04000 276.404
36.08000 263.589
36.12000 279.346
36.16000 270.714
36.20000 247.375
36.24000 269.784
36.28000 253.145
36.32000 269.924
36.36000 265.643
36.40000 266.521
36.44000 269.091
36.48000 277.865
36.52000 280.040
36.56000 266.887
36.60000 261.799
36.64000 273.503
36.68000 273.440
36.72000 264.483
36.76000 274.287
36.80000 271.705
36.84000 274.956
36.88000 293.955
36.92000 272.641
36.96000 285.388
37.00000 274.720
37.04000 271.601
37.08000 277.236
37.12000 267.173
37.16000 265.141
37.20000 270.234
37.24000 269.209
37.28000 277.266
37.32000 260.855
37.36000 271.626
37.40000 265.291
37.44000 274.713
37.48000 273.674
37.52000 262.979
37.56000 265.936
37.60000 267.978
37.64000 269.897
37.68000 272.757
37.72000 266.521
37.76000 261.711
37.80000 268.877
37.84000 272.113
37.88000 255.731
37.92000 269.208
37.96000 265.914
38.00000 278.365
38.04000 282.668
38.08000 269.018
38.12000 279.300
38.16000 296.151
38.20000 291.829
38.24000 301.295
38.28000 306.221
38.32000 327.692
38.36000 344.055
38.40000 374.722
38.44000 424.600
38.48000 474.807
38.52000 544.725
38.56000 612.983
38.60000 688.717
38.64000 766.919
38.68000 790.122
38.72000 814.561
38.76000 736.181
38.80000 696.605
38.84000 591.751
38.88000 524.409
38.92000 448.943
38.96000 387.179
39.00000 341.245
39.04000 313.629
39.08000 313.652
39.12000 294.291
39.16000 289.414
39.20000 270.129
39.24000 268.642
39.28000 259.167
39.32000 259.232
39.36000 262.029
39.40000 256.444
39.44000 248.100
39.48000 237.883
39.52000 249.317
39.56000 254.008
39.60000 236.522
39.64000 242.071
39.68000 251.932
39.72000 248.992
39.76000 236.677
39.80000 244.108
39.84000 232.164
39.88000 242.951
39.92000 228.689
39.96000 237.673
40.00000 230.637
40.04000 233.030
40.08000 232.113
40.12000 236.528
40.16000 238.167
40.20000 223.483
40.24000 238.351
40.28000 224.597
40.32000 229.133
40.36000 227.081
40.40000 232.305
40.44000 230.545
40.48000 231.610
40.52000 222.943
40.56000 229.048
40.60000 229.005
40.64000 230.489
40.68000 237.996
40.72000 224.942
40.76000 217.899
40.80000 219.772
40.84000 220.459
40.88000 227.831
40.92000 224.778
40.96000 236.414
41.00000 224.201
41.04000 214.081
41.08000 229.850
41.12000 224.266
41.16000 220.495
41.20000 222.300
41.24000 228.759
41.28000 207.032
41.32000 206.780
41.36000 223.700
41.40000 218.858
41.44000 210.661
41.48000 220.897
41.52000 226.418
41.56000 209.571
41.60000 209.159
41.64000 211.516
41.68000 211.616
41.72000 210.398
41.76000 208.584
41.80000 200.580
41.84000 217.156
41.88000 215.990
41.92000 201.264
41.96000 215.202
42.00000 220.025
42.04000 202.792
42.08000 205.825
42.12000 214.093
42.16000 216.354
42.20000 207.593
42.24000 202.722
42.28000 210.680
42.32000 218.149
42.36000 212.210
42.40000 215.751
42.44000 208.183
42.48000 199.222
42.52000 199.598
42.56000 212.277
42.60000 212.775
42.64000 206.604
42.68000 201.705
42.72000 198.277
42.76000 210.742
42.80000 205.059
42.84000 210.369
42.88000 211.823
42.92000 213.972
42.96000 209.593
43.00000 212.999
43.04000 206.159
43.08000 211.303
43.12000 207.715
43.16000 205.147
43.20000 218.187
43.24000 202.877
43.28000 208.079
43.32000 207.758
43.36000 207.338
43.40000 205.955
43.44000 209.215
43.48000 214.561
43.52000 197.151
43.56000 208.082
43.60000 199.010
43.64000 203.823
43.68000 198.397
43.72000 207.164
43.76000 202.178
43.80000 198.073
43.84000 201.348
43.88000 197.855
43.92000 198.912
43.96000 209.138
44.00000 201.237
44.04000 198.511
44.08000 202.500
44.12000 209.001
44.16000 209.905
44.20000 205.181
44.24000 206.683
44.28000 207.510
44.32000 213.394
44.36000 198.200
44.40000 212.412
44.44000 220.188
44.48000 221.133
44.52000 227.774
44.56000 243.998
44.60000 240.238
44.64000 249.003
44.68000 267.091
44.72000 288.067
44.76000 299.600
44.80000 313.374
44.84000 345.599
44.88000 385.129
44.92000 394.521
44.96000 416.607
45.00000 419.614
45.04000 422.384
45.08000 418.535
45.12000 385.968
45.16000 381.933
45.20000 370.001
45.24000 349.004
45.28000 329.639
45.32000 302.981
45.36000 280.061
45.40000 275.507
45.44000 255.039
45.48000 248.562
45.52000 253.076
45.56000 234.544
45.60000 229.996
45.64000 221.418
45.68000 220.338
45.72000 211.890
45.76000 200.939
45.80000 206.662
45.84000 197.803
45.88000 205.381
45.92000 205.789
45.96000 192.857
46.00000 191.402
46.04000 194.921
46.08000 196.198
46.12000 188.063
46.16000 191.986
46.20000 176.908
46.24000 183.363
46.28000 178.605
46.32000 188.827
46.36000 184.089
46.40000 182.241
46.44000 175.765
46.48000 184.380
46.52000 174.653
46.56000 180.956
46.60000 192.506
46.64000 166.803
46.68000 169.651
46.72000 188.941
46.76000 178.068
46.80000 173.990
46.84000 179.689
46.88000 175.535
46.92000 169.995
46.96000 173.533
47.00000 168.174
47.04000 167.734
47.08000 167.836
47.12000 170.852
47.16000 174.741
47.20000 173.232
47.24000 163.537
47.28000 161.129
47.32000 166.839
47.36000 167.479
47.40000 167.708
47.44000 166.976
47.48000 164.680
47.52000 171.266
47.56000 157.822
47.60000 179.924
47.64000 155.509
47.68000 178.724
47.72000 155.936
47.76000 175.020
47.80000 169.955
47.84000 157.907
47.88000 162.922
47.92000 162.218
47.96000 166.904
48.00000 163.361
48.04000 163.877
48.08000 161.678
48.12000 155.850
48.16000 154.822
48.20000 163.495
48.24000 162.074
48.28000 160.470
48.32000 163.747
48.36000 163.927
48.40000 166.978
48.44000 168.074
48.48000 161.850
48.52000 161.555
48.56000 165.480
48.60000 161.451
48.64000 170.560
48.68000 153.881
48.72000 169.745
48.76000 166.569
48.80000 151.958
48.84000 159.775
48.88000 148.461
48.92000 153.963
48.96000 159.977
49.00000 159.554
49.04000 154.694
49.08000 160.917
49.12000 161.590
49.16000 167.089
49.20000 162.992
49.24000 165.007
49.28000 164.665
49.32000 159.806
49.36000 161.178
49.40000 161.681
49.44000 158.404
49.48000 147.195
49.52000 147.653
49.56000 159.938
49.60000 169.637
49.64000 162.178
49.68000 162.193
49.72000 164.186
49.76000 155.284
49.80000 156.779
49.84000 149.388
49.88000 167.647
49.92000 164.667
49.96000 170.585
50.00000 158.453
50.04000 149.293
50.08000 168.913
50.12000 169.847
50.16000 162.770
50.20000 163.889
50.24000 160.094
50.28000 180.420
50.32000 177.631
50.36000 180.802
50.40000 189.465
50.44000 195.387
50.48000 200.069
50.52000 212.102
50.56000 234.829
50.60000 231.384
50.64000 246.441
50.68000 246.240
50.72000 247.996
50.76000 246.187
50.80000 247.483
50.84000 216.319
50.88000 228.522
50.92000 209.806
50.96000 195.854
51.00000 185.579
51.04000 178.247
51.08000 181.526
51.12000 172.863
51.16000 165.643
51.20000 153.655
51.24000 167.745
51.28000 176.409
51.32000 147.900
51.36000 155.854
51.40000 152.513
51.44000 153.832
51.48000 150.581
51.52000 155.159
51.56000 148.229
51.60000 153.054
51.64000 149.956
51.68000 149.432
51.72000 149.870
51.76000 150.921
51.80000 140.030
51.84000 148.780
51.88000 147.722
51.92000 147.552
51.96000 147.769
52.00000 148.664
52.04000 139.678
52.08000 149.919
52.12000 138.798
52.16000 152.174
52.20000 148.009
52.24000 145.473
52.28000 150.872
52.32000 151.926
52.36000 142.546
52.40000 149.746
52.44000 142.920
52.48000 143.770
52.52000 141.012
52.56000 145.042
52.60000 150.866
52.64000 142.002
52.68000 149.221
52.72000 133.547
52.76000 148.096
52.80000 145.229
52.84000 143.225
52.88000 147.702
52.92000 139.666
52.96000 141.747
53.00000 148.920
53.04000 148.960
53.08000 150.932
53.12000 143.800
53.16000 142.979
53.20000 161.157
53.24000 162.157
53.28000 152.128
53.32000 155.859
53.36000 156.476
53.40000 154.615
53.44000 155.899
53.48000 157.434
53.52000 158.788
53.56000 160.681
53.60000 139.621
53.64000 142.242
53.68000 150.554
53.72000 143.846
53.76000 151.175
53.80000 141.221
53.84000 142.210
53.88000 144.907
53.92000 146.992
53.96000 153.456
54.00000 144.685
54.04000 140.290
54.08000 139.615
54.12000 150.851
54.16000 137.531
54.20000 150.028
54.24000 147.104
54.28000 140.722
54.32000 139.593
54.36000 145.177
54.40000 152.605
54.44000 140.913
54.48000 142.199
54.52000 146.460
54.56000 147.874
54.60000 153.241
54.64000 141.898
54.68000 148.732
54.72000 155.219
54.76000 143.800
54.80000 148.503
54.84000 138.357
54.88000 142.180
54.92000 151.126
54.96000 143.233
55.00000 147.672
55.04000 140.949
55.08000 145.373
55.12000 150.524
55.16000 145.408
55.20000 155.881
55.24000 157.193
55.28000 151.958
55.32000 163.467
55.36000 168.797
55.40000 177.914
55.44000 191.052
55.48000 202.418
55.52000 217.430
55.56000 228.656
55.60000 269.104
55.64000 297.474
55.68000 326.191
55.72000 378.347
55.76000 420.947
55.80000 474.159
55.84000 515.039
55.88000 554.186
55.92000 588.414
55.96000 579.129
56.00000 534.889
56.04000 506.447
56.08000 461.465
56.12000 405.220
56.16000 381.725
56.20000 334.651
56.24000 291.635
56.28000 261.386
56.32000 241.949
56.36000 226.606
56.40000 208.966
56.44000 182.176
56.48000 182.229
56.52000 161.595
56.56000 168.068
56.60000 164.215
56.64000 158.633
56.68000 155.528
56.72000 153.197
56.76000 142.028
56.80000 133.574
56.84000 133.445
56.88000 134.876
56.92000 143.148
56.96000 134.450
57.00000 140.259
57.04000 129.932
57.08000 131.701
57.12000 132.621
57.16000 133.235
57.20000 144.976
57.24000 134.492
57.28000 136.334
57.32000 127.431
57.36000 133.774
57.40000 136.044
57.44000 129.235
57.48000 126.556
57.52000 120.235
57.56000 132.290
57.60000 121.830
57.64000 123.405
57.68000 127.526
57.72000 133.316
57.76000 131.213
57.80000 113.346
57.84000 123.501
57.88000 126.770
57.92000 118.459
57.96000 135.084
58.00000 122.926
58.04000 119.777
58.08000 123.401
58.12000 130.438
58.16000 124.793
58.20000 123.592
58.24000 123.545
58.28000 123.664
58.32000 116.880
58.36000 131.536
58.40000 127.487
58.44000 124.586
58.48000 120.658
58.52000 117.479
58.56000 129.721
58.60000 123.311
58.64000 124.345
58.68000 130.562
58.72000 122.452
58.76000 116.740
58.80000 125.625
58.84000 118.043
58.88000 123.603
58.92000 122.345
58.96000 124.385
59.00000 122.093
59.04000 117.263
59.08000 120.032
59.12000 122.107
59.16000 124.290
59.20000 124.536
59.24000 125.913
59.28000 123.608
59.32000 117.646
59.36000 127.802
59.40000 128.653
59.44000 123.186
59.48000 118.556
59.52000 125.698
59.56000 124.787
59.60000 122.877
59.64000 121.749
59.68000 123.644
59.72000 118.772
59.76000 119.703
59.80000 135.756
59.84000 124.009
59.88000 116.985
59.92000 104.620
59.96000 122.808
60.00000 111.776
60.04000 121.668
60.08000 118.140
60.12000 110.438
60.16000 119.854
60.20000 122.692
60.24000 116.293
60.28000 117.419
60.32000 130.837
60.36000 127.668
60.40000 112.286
60.44000 125.858
60.48000 116.423
60.52000 120.616
60.56000 118.084
60.60000 119.232
60.64000 117.668
60.68000 122.520
60.72000 118.477
60.76000 112.299
60.80000 133.008
60.84000 126.209
60.88000 116.045
60.92000 123.561
60.96000 127.942
61.00000 121.734
61.04000 126.513
61.08000 127.018
61.12000 125.059
61.16000 134.201
61.20000 130.972
61.24000 120.565
61.28000 132.248
61.32000 133.065
61.36000 125.675
61.40000 137.449
61.44000 141.357
61.48000 146.732
61.52000 195.665
61.56000 263.932
61.60000 358.866
61.64000 416.485
61.68000 416.393
61.72000 447.940
61.76000 392.280
61.80000 319.992
61.84000 210.970
61.88000 168.241
61.92000 151.270
61.96000 145.526
62.00000 140.612
62.04000 132.935
62.08000 133.451
62.12000 131.380
62.16000 143.513
62.20000 133.856
62.24000 134.438
62.28000 143.196
62.32000 139.952
62.36000 148.332
62.40000 151.269
62.44000 151.360
62.48000 145.809
62.52000 129.295
62.56000 135.283
62.60000 132.858
62.64000 135.784
62.68000 141.583
62.72000 135.470
62.76000 142.689
62.80000 133.851
62.84000 132.063
62.88000 146.041
62.92000 141.083
62.96000 144.767
63.00000 142.449
63.04000 133.935
63.08000 143.153
63.12000 144.300
63.16000 147.183
63.20000 144.603
63.24000 154.146
63.28000 145.721
63.32000 141.080
63.36000 146.414
63.40000 138.529
63.44000 148.684
63.48000 140.921
63.52000 150.665
63.56000 137.586
63.60000 147.159
63.64000 149.014
63.68000 148.411
63.72000 151.667
63.76000 145.510
63.80000 142.469
63.84000 156.539
63.88000 152.884
63.92000 148.610
63.96000 155.299
64.00000 145.161
64.04000 156.993
64.08000 158.348
64.12000 158.859
64.16000 152.375
64.20000 159.174
64.24000 161.801
64.28000 170.032
64.32000 165.692
64.36000 168.363
64.40000 170.902
64.44000 171.440
64.48000 179.152
64.52000 166.555
64.56000 182.192
64.60000 197.843
64.64000 175.170
64.68000 192.038
64.72000 188.329
64.76000 192.867
64.80000 190.054
64.84000 190.573
64.88000 199.398
64.92000 200.380
64.96000 201.286
65.00000 220.664
65.04000 231.361
65.08000 239.571
65.12000 242.891
65.16000 251.341
65.20000 272.561
65.24000 282.742
65.28000 299.251
65.32000 322.098
65.36000 371.164
65.40000 389.248
65.44000 419.440
65.48000 457.538
65.52000 495.420
65.56000 547.883
65.60000 627.422
65.64000 704.431
65.68000 1035.346
65.72000 1534.369
65.76000 2334.992
65.80000 3043.322
65.84000 3289.299
65.88000 3310.822
65.92000 3100.295
65.96000 2522.783
66.00000 1649.129
66.04000 991.433
66.08000 694.507
66.12000 574.030
66.16000 528.713
66.20000 514.326
66.24000 556.094
66.28000 653.788
66.32000 801.137
66.36000 916.452
66.40000 951.174
66.44000 933.827
66.48000 886.531
66.52000 801.475
66.56000 631.863
66.60000 525.749
66.64000 470.268
66.68000 485.964
66.72000 452.492
66.76000 451.413
66.80000 462.461
66.84000 470.780
66.88000 462.365
66.92000 457.362
66.96000 485.200
67.00000 486.310
67.04000 495.463
67.08000 488.369
67.12000 493.485
67.16000 502.449
67.20000 498.124
67.24000 506.589
67.28000 511.374
67.32000 511.496
67.36000 525.724
67.40000 513.389
67.44000 563.369
67.48000 532.174
67.52000 552.820
67.56000 564.674
67.60000 553.753
67.64000 564.655
67.68000 580.336
67.72000 594.192
67.76000 587.416
67.80000 596.380
67.84000 595.859
67.88000 619.773
67.92000 629.543
67.96000 632.501
68.00000 641.714
68.04000 666.776
68.08000 663.355
68.12000 668.594
68.16000 721.983
68.20000 702.762
68.24000 722.654
68.28000 735.425
68.32000 762.011
68.36000 799.113
68.40000 816.757
68.44000 855.447
68.48000 882.994
68.52000 923.913
68.56000 1056.383
68.60000 1200.704
68.64000 1408.602
68.68000 1680.745
68.72000 2018.949
68.76000 2221.665
68.80000 2705.030
68.84000 3216.267
68.88000 4276.404
68.92000 7558.827
68.96000 18012.395
69.00000 39688.121
69.04000 62245.801
69.08000 74418.148
69.12000 79403.406
69.16000 83836.797
69.20000 81652.992
69.24000 66259.023
69.28000 50568.730
69.32000 40928.504
69.36000 37642.293
69.40000 30578.512
69.44000 18564.326
69.48000 8465.862
69.52000 3730.957
69.56000 2126.597
69.60000 1582.572
69.64000 1310.628
69.68000 1119.760
69.72000 989.771
69.76000 877.796
69.80000 804.079
69.84000 780.449
69.88000 723.627
69.92000 657.832
69.96000 635.417
70.00000 589.903