File: XRD/XRD/09-10-2025 Dep 8/XY Data/BTO_Mapping_Theta2Theta_09-10-2025_001_11_13-383_14-863.xy
20.00000 493.529
20.04000 482.235
20.08000 478.228
20.12000 471.885
20.16000 481.297
20.20000 462.012
20.24000 479.669
20.28000 484.999
20.32000 500.258
20.36000 491.099
20.40000 466.972
20.44000 472.317
20.48000 491.873
20.52000 478.576
20.56000 470.961
20.60000 467.668
20.64000 485.567
20.68000 480.242
20.72000 469.759
20.76000 460.656
20.80000 481.503
20.84000 462.041
20.88000 475.557
20.92000 483.491
20.96000 470.339
21.00000 476.580
21.04000 470.681
21.08000 477.726
21.12000 465.851
21.16000 469.478
21.20000 476.911
21.24000 487.656
21.28000 476.407
21.32000 481.027
21.36000 456.266
21.40000 469.411
21.44000 452.870
21.48000 493.108
21.52000 490.509
21.56000 474.370
21.60000 463.271
21.64000 474.938
21.68000 484.068
21.72000 479.655
21.76000 499.469
21.80000 494.931
21.84000 502.106
21.88000 497.310
21.92000 518.033
21.96000 540.988
22.00000 551.441
22.04000 559.940
22.08000 597.199
22.12000 596.027
22.16000 601.258
22.20000 618.699
22.24000 583.168
22.28000 580.302
22.32000 558.404
22.36000 551.958
22.40000 500.650
22.44000 506.111
22.48000 507.439
22.52000 496.950
22.56000 477.822
22.60000 456.028
22.64000 462.298
22.68000 450.872
22.72000 455.453
22.76000 456.549
22.80000 447.225
22.84000 440.170
22.88000 466.851
22.92000 437.128
22.96000 444.082
23.00000 418.858
23.04000 446.850
23.08000 458.608
23.12000 443.466
23.16000 456.684
23.20000 434.433
23.24000 448.308
23.28000 452.728
23.32000 448.696
23.36000 425.471
23.40000 433.402
23.44000 445.225
23.48000 447.242
23.52000 437.537
23.56000 432.497
23.60000 424.518
23.64000 422.106
23.68000 437.735
23.72000 423.376
23.76000 430.498
23.80000 434.912
23.84000 437.885
23.88000 429.460
23.92000 419.569
23.96000 438.661
24.00000 420.043
24.04000 426.878
24.08000 414.829
24.12000 442.334
24.16000 426.170
24.20000 427.182
24.24000 445.159
24.28000 436.582
24.32000 447.570
24.36000 409.334
24.40000 422.984
24.44000 403.153
24.48000 406.521
24.52000 419.024
24.56000 430.369
24.60000 430.689
24.64000 429.941
24.68000 396.238
24.72000 429.010
24.76000 404.064
24.80000 413.913
24.84000 404.859
24.88000 408.712
24.92000 418.367
24.96000 418.484
25.00000 407.235
25.04000 419.718
25.08000 422.042
25.12000 402.167
25.16000 414.145
25.20000 420.183
25.24000 402.917
25.28000 408.168
25.32000 410.319
25.36000 397.426
25.40000 403.896
25.44000 390.594
25.48000 402.661
25.52000 389.484
25.56000 409.862
25.60000 421.350
25.64000 393.405
25.68000 404.781
25.72000 391.839
25.76000 391.068
25.80000 390.302
25.84000 393.035
25.88000 387.704
25.92000 389.137
25.96000 394.156
26.00000 393.627
26.04000 392.132
26.08000 391.336
26.12000 387.224
26.16000 394.008
26.20000 391.693
26.24000 378.229
26.28000 389.420
26.32000 397.424
26.36000 396.275
26.40000 404.959
26.44000 405.851
26.48000 395.091
26.52000 391.313
26.56000 387.378
26.60000 387.761
26.64000 384.494
26.68000 384.088
26.72000 389.124
26.76000 386.614
26.80000 382.141
26.84000 393.145
26.88000 391.708
26.92000 387.005
26.96000 388.867
27.00000 378.707
27.04000 399.123
27.08000 364.027
27.12000 372.179
27.16000 381.692
27.20000 384.758
27.24000 374.911
27.28000 379.056
27.32000 384.552
27.36000 384.246
27.40000 389.154
27.44000 374.267
27.48000 373.213
27.52000 377.371
27.56000 382.707
27.60000 373.846
27.64000 366.219
27.68000 367.614
27.72000 381.503
27.76000 366.471
27.80000 360.756
27.84000 381.090
27.88000 393.716
27.92000 364.850
27.96000 371.627
28.00000 361.251
28.04000 375.685
28.08000 368.617
28.12000 372.965
28.16000 379.990
28.20000 404.053
28.24000 380.016
28.28000 366.671
28.32000 379.961
28.36000 379.277
28.40000 404.525
28.44000 372.858
28.48000 359.608
28.52000 365.084
28.56000 375.248
28.60000 363.909
28.64000 338.760
28.68000 358.952
28.72000 368.514
28.76000 368.820
28.80000 377.939
28.84000 359.815
28.88000 352.698
28.92000 367.183
28.96000 369.313
29.00000 361.512
29.04000 383.942
29.08000 366.461
29.12000 378.283
29.16000 365.439
29.20000 355.219
29.24000 352.980
29.28000 358.408
29.32000 362.994
29.36000 365.654
29.40000 353.798
29.44000 361.841
29.48000 360.313
29.52000 355.999
29.56000 358.536
29.60000 361.418
29.64000 357.734
29.68000 377.321
29.72000 385.282
29.76000 363.629
29.80000 379.815
29.84000 388.911
29.88000 382.138
29.92000 406.582
29.96000 429.945
30.00000 431.554
30.04000 442.746
30.08000 434.816
30.12000 445.414
30.16000 435.337
30.20000 426.033
30.24000 411.689
30.28000 410.445
30.32000 396.364
30.36000 386.427
30.40000 401.415
30.44000 394.788
30.48000 394.412
30.52000 406.653
30.56000 405.701
30.60000 384.482
30.64000 403.019
30.68000 405.090
30.72000 400.143
30.76000 405.428
30.80000 407.090
30.84000 422.470
30.88000 428.354
30.92000 432.559
30.96000 462.882
31.00000 506.056
31.04000 519.181
31.08000 590.926
31.12000 665.268
31.16000 807.188
31.20000 1054.163
31.24000 1307.910
31.28000 1757.093
31.32000 2183.789
31.36000 2482.968
31.40000 2682.515
31.44000 2768.903
31.48000 2592.566
31.52000 2290.443
31.56000 1898.941
31.60000 1538.114
31.64000 1198.524
31.68000 965.404
31.72000 783.183
31.76000 647.162
31.80000 588.567
31.84000 514.844
31.88000 456.061
31.92000 426.678
31.96000 407.352
32.00000 402.581
32.04000 363.465
32.08000 373.848
32.12000 357.867
32.16000 365.366
32.20000 353.865
32.24000 355.486
32.28000 347.284
32.32000 338.066
32.36000 348.063
32.40000 329.441
32.44000 316.850
32.48000 344.660
32.52000 341.263
32.56000 334.130
32.60000 327.948
32.64000 336.136
32.68000 343.448
32.72000 327.919
32.76000 326.534
32.80000 339.299
32.84000 328.772
32.88000 313.126
32.92000 317.488
32.96000 304.493
33.00000 318.923
33.04000 324.511
33.08000 317.148
33.12000 293.157
33.16000 295.024
33.20000 301.717
33.24000 311.897
33.28000 307.175
33.32000 281.935
33.36000 303.810
33.40000 297.649
33.44000 294.116
33.48000 298.484
33.52000 301.619
33.56000 308.575
33.60000 299.492
33.64000 297.085
33.68000 284.673
33.72000 286.568
33.76000 288.900
33.80000 289.732
33.84000 292.429
33.88000 283.907
33.92000 282.230
33.96000 290.284
34.00000 296.241
34.04000 283.348
34.08000 287.975
34.12000 281.677
34.16000 307.206
34.20000 290.286
34.24000 279.704
34.28000 292.122
34.32000 284.626
34.36000 291.784
34.40000 286.391
34.44000 297.302
34.48000 286.800
34.52000 289.642
34.56000 285.199
34.60000 280.594
34.64000 283.172
34.68000 281.734
34.72000 270.194
34.76000 294.097
34.80000 279.662
34.84000 276.030
34.88000 269.686
34.92000 266.604
34.96000 267.176
35.00000 279.108
35.04000 277.868
35.08000 292.694
35.12000 270.217
35.16000 270.306
35.20000 277.450
35.24000 281.184
35.28000 260.838
35.32000 274.348
35.36000 280.580
35.40000 278.649
35.44000 269.873
35.48000 285.863
35.52000 264.915
35.56000 274.223
35.60000 270.107
35.64000 268.047
35.68000 263.609
35.72000 255.708
35.76000 259.350
35.80000 276.520
35.84000 274.068
35.88000 267.110
35.92000 263.094
35.96000 266.795
36.00000 264.103
36.04000 261.911
36.08000 272.373
36.12000 276.771
36.16000 262.284
36.20000 276.884
36.24000 258.650
36.28000 259.658
36.32000 263.667
36.36000 265.324
36.40000 263.665
36.44000 263.193
36.48000 261.554
36.52000 266.553
36.56000 266.120
36.60000 254.669
36.64000 276.451
36.68000 254.318
36.72000 267.505
36.76000 253.371
36.80000 260.171
36.84000 261.457
36.88000 263.572
36.92000 269.260
36.96000 271.421
37.00000 278.906
37.04000 272.242
37.08000 289.543
37.12000 281.815
37.16000 282.832
37.20000 269.732
37.24000 269.340
37.28000 260.704
37.32000 282.111
37.36000 264.223
37.40000 264.639
37.44000 266.325
37.48000 258.224
37.52000 265.779
37.56000 245.526
37.60000 248.511
37.64000 260.402
37.68000 262.477
37.72000 258.976
37.76000 268.458
37.80000 246.667
37.84000 254.212
37.88000 253.134
37.92000 260.437
37.96000 269.353
38.00000 259.398
38.04000 255.982
38.08000 263.234
38.12000 247.574
38.16000 264.151
38.20000 270.201
38.24000 266.954
38.28000 291.375
38.32000 288.156
38.36000 297.773
38.40000 305.942
38.44000 330.350
38.48000 358.626
38.52000 430.836
38.56000 502.856
38.60000 629.206
38.64000 733.889
38.68000 867.900
38.72000 957.633
38.76000 1016.106
38.80000 983.944
38.84000 898.723
38.88000 779.900
38.92000 666.747
38.96000 527.570
39.00000 441.715
39.04000 357.704
39.08000 325.067
39.12000 293.735
39.16000 290.741
39.20000 277.184
39.24000 254.653
39.28000 251.843
39.32000 238.734
39.36000 248.068
39.40000 246.092
39.44000 234.932
39.48000 242.794
39.52000 246.849
39.56000 241.773
39.60000 237.413
39.64000 244.524
39.68000 237.828
39.72000 231.576
39.76000 219.579
39.80000 229.127
39.84000 215.127
39.88000 240.558
39.92000 234.000
39.96000 234.403
40.00000 237.180
40.04000 229.528
40.08000 229.218
40.12000 224.313
40.16000 229.183
40.20000 237.029
40.24000 218.315
40.28000 238.844
40.32000 216.579
40.36000 225.262
40.40000 233.173
40.44000 220.990
40.48000 209.083
40.52000 217.758
40.56000 211.390
40.60000 225.159
40.64000 223.628
40.68000 214.377
40.72000 229.571
40.76000 214.652
40.80000 226.526
40.84000 210.660
40.88000 212.750
40.92000 215.175
40.96000 218.547
41.00000 201.163
41.04000 224.635
41.08000 215.870
41.12000 220.130
41.16000 208.394
41.20000 218.973
41.24000 220.957
41.28000 222.259
41.32000 201.308
41.36000 209.848
41.40000 204.576
41.44000 221.079
41.48000 202.714
41.52000 215.729
41.56000 208.346
41.60000 203.443
41.64000 222.816
41.68000 208.991
41.72000 209.808
41.76000 210.168
41.80000 204.521
41.84000 207.039
41.88000 214.418
41.92000 207.284
41.96000 211.874
42.00000 199.130
42.04000 206.616
42.08000 206.700
42.12000 209.803
42.16000 221.751
42.20000 202.001
42.24000 210.145
42.28000 197.159
42.32000 205.442
42.36000 214.132
42.40000 203.638
42.44000 218.816
42.48000 197.021
42.52000 208.627
42.56000 214.841
42.60000 201.359
42.64000 196.698
42.68000 203.968
42.72000 202.672
42.76000 214.836
42.80000 199.583
42.84000 209.178
42.88000 205.619
42.92000 203.760
42.96000 204.939
43.00000 197.347
43.04000 209.141
43.08000 195.063
43.12000 200.172
43.16000 201.358
43.20000 196.471
43.24000 190.396
43.28000 202.524
43.32000 210.095
43.36000 191.857
43.40000 197.967
43.44000 203.162
43.48000 200.635
43.52000 196.643
43.56000 196.915
43.60000 195.260
43.64000 196.330
43.68000 204.763
43.72000 195.880
43.76000 187.917
43.80000 204.147
43.84000 208.703
43.88000 203.736
43.92000 195.431
43.96000 196.799
44.00000 197.022
44.04000 200.839
44.08000 199.741
44.12000 184.376
44.16000 184.972
44.20000 192.701
44.24000 198.914
44.28000 207.180
44.32000 192.380
44.36000 199.045
44.40000 191.640
44.44000 204.148
44.48000 194.699
44.52000 202.834
44.56000 190.391
44.60000 194.731
44.64000 215.094
44.68000 203.023
44.72000 207.203
44.76000 215.927
44.80000 210.663
44.84000 241.108
44.88000 225.848
44.92000 221.781
44.96000 241.580
45.00000 244.014
45.04000 266.895
45.08000 280.227
45.12000 269.967
45.16000 292.086
45.20000 287.058
45.24000 280.768
45.28000 279.745
45.32000 287.437
45.36000 268.674
45.40000 261.025
45.44000 271.948
45.48000 254.369
45.52000 246.679
45.56000 246.521
45.60000 244.611
45.64000 232.201
45.68000 224.564
45.72000 222.426
45.76000 225.424
45.80000 211.804
45.84000 221.705
45.88000 211.146
45.92000 206.096
45.96000 191.287
46.00000 209.385
46.04000 194.197
46.08000 177.784
46.12000 201.122
46.16000 190.108
46.20000 188.998
46.24000 187.093
46.28000 189.004
46.32000 179.532
46.36000 179.095
46.40000 183.837
46.44000 169.207
46.48000 176.180
46.52000 158.542
46.56000 171.222
46.60000 181.344
46.64000 170.944
46.68000 185.727
46.72000 175.307
46.76000 168.019
46.80000 171.623
46.84000 170.209
46.88000 178.344
46.92000 171.750
46.96000 170.621
47.00000 169.552
47.04000 160.369
47.08000 173.995
47.12000 165.898
47.16000 168.420
47.20000 174.517
47.24000 178.440
47.28000 163.313
47.32000 165.942
47.36000 168.826
47.40000 172.189
47.44000 168.041
47.48000 164.470
47.52000 174.301
47.56000 165.452
47.60000 168.017
47.64000 160.685
47.68000 165.050
47.72000 164.627
47.76000 161.382
47.80000 167.526
47.84000 157.544
47.88000 161.061
47.92000 158.496
47.96000 166.058
48.00000 162.492
48.04000 164.625
48.08000 154.697
48.12000 154.649
48.16000 156.029
48.20000 161.289
48.24000 167.821
48.28000 154.180
48.32000 160.971
48.36000 163.983
48.40000 154.151
48.44000 155.637
48.48000 175.547
48.52000 160.135
48.56000 163.345
48.60000 158.408
48.64000 166.978
48.68000 145.272
48.72000 154.210
48.76000 157.092
48.80000 157.440
48.84000 157.902
48.88000 159.668
48.92000 148.910
48.96000 159.291
49.00000 163.932
49.04000 155.791
49.08000 159.684
49.12000 160.443
49.16000 149.664
49.20000 152.869
49.24000 163.230
49.28000 169.581
49.32000 150.790
49.36000 151.787
49.40000 157.375
49.44000 170.181
49.48000 157.691
49.52000 156.742
49.56000 153.678
49.60000 156.157
49.64000 164.057
49.68000 150.420
49.72000 149.841
49.76000 147.446
49.80000 143.525
49.84000 159.344
49.88000 155.444
49.92000 159.072
49.96000 154.291
50.00000 162.981
50.04000 145.118
50.08000 142.155
50.12000 157.631
50.16000 153.737
50.20000 165.183
50.24000 161.245
50.28000 151.089
50.32000 147.643
50.36000 159.399
50.40000 160.501
50.44000 162.884
50.48000 167.269
50.52000 177.708
50.56000 184.535
50.60000 193.256
50.64000 201.384
50.68000 220.318
50.72000 217.143
50.76000 234.038
50.80000 220.520
50.84000 223.951
50.88000 218.754
50.92000 214.475
50.96000 188.292
51.00000 195.706
51.04000 179.377
51.08000 179.218
51.12000 163.731
51.16000 166.025
51.20000 164.898
51.24000 145.636
51.28000 164.157
51.32000 155.786
51.36000 153.777
51.40000 150.851
51.44000 153.899
51.48000 161.392
51.52000 155.218
51.56000 158.996
51.60000 146.158
51.64000 148.714
51.68000 153.763
51.72000 139.277
51.76000 145.094
51.80000 147.984
51.84000 142.870
51.88000 147.463
51.92000 138.131
51.96000 144.963
52.00000 143.544
52.04000 146.920
52.08000 143.428
52.12000 135.226
52.16000 146.398
52.20000 155.270
52.24000 146.455
52.28000 140.101
52.32000 137.371
52.36000 137.780
52.40000 135.351
52.44000 145.067
52.48000 142.021
52.52000 147.443
52.56000 147.767
52.60000 147.502
52.64000 146.561
52.68000 135.773
52.72000 144.885
52.76000 129.034
52.80000 143.244
52.84000 149.808
52.88000 139.845
52.92000 135.199
52.96000 138.944
53.00000 143.168
53.04000 137.087
53.08000 142.374
53.12000 139.193
53.16000 138.853
53.20000 138.945
53.24000 144.903
53.28000 145.300
53.32000 146.061
53.36000 142.763
53.40000 169.382
53.44000 152.498
53.48000 151.823
53.52000 151.867
53.56000 140.482
53.60000 155.949
53.64000 149.334
53.68000 153.254
53.72000 146.550
53.76000 149.762
53.80000 142.359
53.84000 136.341
53.88000 152.341
53.92000 133.322
53.96000 131.609
54.00000 139.595
54.04000 140.617
54.08000 142.841
54.12000 137.111
54.16000 144.908
54.20000 139.016
54.24000 130.544
54.28000 134.930
54.32000 137.909
54.36000 136.379
54.40000 144.418
54.44000 137.713
54.48000 141.617
54.52000 134.845
54.56000 149.594
54.60000 140.838
54.64000 138.947
54.68000 139.268
54.72000 140.179
54.76000 145.560
54.80000 135.860
54.84000 137.658
54.88000 143.667
54.92000 137.537
54.96000 136.164
55.00000 146.823
55.04000 142.033
55.08000 146.218
55.12000 135.347
55.16000 145.060
55.20000 146.390
55.24000 148.039
55.28000 145.975
55.32000 143.742
55.36000 150.214
55.40000 154.017
55.44000 152.847
55.48000 158.792
55.52000 169.614
55.56000 170.325
55.60000 179.236
55.64000 197.326
55.68000 210.638
55.72000 218.460
55.76000 260.583
55.80000 306.279
55.84000 364.011
55.88000 416.428
55.92000 468.532
55.96000 523.818
56.00000 546.541
56.04000 552.204
56.08000 526.562
56.12000 506.691
56.16000 465.226
56.20000 436.585
56.24000 377.302
56.28000 315.234
56.32000 273.362
56.36000 258.336
56.40000 215.234
56.44000 200.264
56.48000 188.637
56.52000 184.826
56.56000 166.891
56.60000 162.014
56.64000 153.773
56.68000 161.694
56.72000 154.159
56.76000 148.335
56.80000 149.456
56.84000 148.177
56.88000 144.575
56.92000 134.676
56.96000 136.264
57.00000 134.097
57.04000 135.769
57.08000 143.043
57.12000 128.589
57.16000 129.273
57.20000 128.897
57.24000 128.902
57.28000 123.064
57.32000 131.672
57.36000 124.274
57.40000 124.893
57.44000 127.176
57.48000 129.807
57.52000 124.363
57.56000 121.902
57.60000 128.428
57.64000 139.977
57.68000 130.101
57.72000 119.487
57.76000 129.823
57.80000 124.572
57.84000 122.455
57.88000 127.413
57.92000 118.116
57.96000 122.621
58.00000 117.490
58.04000 122.971
58.08000 124.559
58.12000 130.705
58.16000 126.003
58.20000 125.196
58.24000 128.176
58.28000 124.077
58.32000 128.266
58.36000 128.561
58.40000 116.861
58.44000 118.846
58.48000 127.397
58.52000 132.519
58.56000 125.309
58.60000 132.954
58.64000 119.006
58.68000 114.842
58.72000 124.658
58.76000 117.335
58.80000 123.759
58.84000 125.430
58.88000 125.739
58.92000 123.513
58.96000 130.604
59.00000 127.718
59.04000 123.455
59.08000 128.707
59.12000 122.452
59.16000 119.554
59.20000 120.872
59.24000 119.309
59.28000 120.954
59.32000 124.212
59.36000 118.638
59.40000 115.139
59.44000 116.471
59.48000 119.634
59.52000 116.835
59.56000 125.589
59.60000 122.361
59.64000 113.158
59.68000 114.622
59.72000 118.095
59.76000 117.419
59.80000 120.254
59.84000 120.119
59.88000 122.549
59.92000 110.243
59.96000 125.012
60.00000 117.138
60.04000 121.538
60.08000 122.823
60.12000 125.473
60.16000 126.077
60.20000 127.470
60.24000 118.971
60.28000 111.270
60.32000 126.790
60.36000 127.379
60.40000 120.356
60.44000 114.066
60.48000 122.161
60.52000 117.705
60.56000 114.196
60.60000 113.500
60.64000 128.890
60.68000 118.911
60.72000 118.311
60.76000 121.777
60.80000 121.896
60.84000 136.839
60.88000 128.017
60.92000 120.974
60.96000 127.722
61.00000 124.883
61.04000 120.369
61.08000 121.994
61.12000 121.567
61.16000 122.017
61.20000 121.377
61.24000 118.642
61.28000 119.776
61.32000 124.263
61.36000 121.308
61.40000 126.630
61.44000 138.148
61.48000 130.294
61.52000 163.158
61.56000 222.086
61.60000 262.873
61.64000 314.235
61.68000 329.171
61.72000 330.397
61.76000 304.595
61.80000 230.474
61.84000 171.925
61.88000 136.736
61.92000 141.058
61.96000 135.831
62.00000 133.885
62.04000 135.880
62.08000 125.589
62.12000 129.654
62.16000 133.436
62.20000 130.447
62.24000 133.977
62.28000 133.568
62.32000 129.878
62.36000 128.741
62.40000 131.327
62.44000 127.446
62.48000 139.931
62.52000 142.147
62.56000 142.340
62.60000 127.754
62.64000 129.699
62.68000 133.321
62.72000 134.956
62.76000 136.027
62.80000 140.423
62.84000 140.936
62.88000 133.810
62.92000 135.440
62.96000 132.819
63.00000 133.501
63.04000 137.284
63.08000 134.952
63.12000 143.319
63.16000 130.014
63.20000 134.830
63.24000 133.609
63.28000 139.698
63.32000 125.919
63.36000 127.919
63.40000 140.300
63.44000 144.323
63.48000 138.778
63.52000 142.193
63.56000 136.375
63.60000 154.095
63.64000 141.063
63.68000 139.485
63.72000 138.993
63.76000 139.752
63.80000 136.191
63.84000 141.818
63.88000 143.751
63.92000 144.561
63.96000 145.778
64.00000 140.684
64.04000 160.965
64.08000 142.171
64.12000 150.091
64.16000 148.862
64.20000 148.164
64.24000 150.983
64.28000 160.066
64.32000 156.678
64.36000 156.822
64.40000 162.061
64.44000 163.740
64.48000 170.805
64.52000 156.500
64.56000 163.899
64.60000 176.375
64.64000 172.042
64.68000 165.021
64.72000 165.269
64.76000 175.815
64.80000 181.607
64.84000 177.311
64.88000 175.005
64.92000 187.116
64.96000 189.489
65.00000 203.256
65.04000 202.144
65.08000 199.815
65.12000 212.489
65.16000 213.821
65.20000 223.567
65.24000 231.355
65.28000 244.700
65.32000 251.075
65.36000 273.289
65.40000 324.005
65.44000 327.777
65.48000 367.310
65.52000 402.131
65.56000 454.832
65.60000 489.059
65.64000 553.609
65.68000 744.247
65.72000 1149.638
65.76000 1694.097
65.80000 2100.338
65.84000 2256.756
65.88000 2269.782
65.92000 2146.532
65.96000 1745.519
66.00000 1132.351
66.04000 735.178
66.08000 536.054
66.12000 445.141
66.16000 407.692
66.20000 420.621
66.24000 432.061
66.28000 500.666
66.32000 603.306
66.36000 699.771
66.40000 695.104
66.44000 703.879
66.48000 660.738
66.52000 582.287
66.56000 483.679
66.60000 426.106
66.64000 387.313
66.68000 380.087
66.72000 360.014
66.76000 360.887
66.80000 371.676
66.84000 376.300
66.88000 385.303
66.92000 382.522
66.96000 374.992
67.00000 386.467
67.04000 407.575
67.08000 418.812
67.12000 412.696
67.16000 423.868
67.20000 417.451
67.24000 422.902
67.28000 416.226
67.32000 432.620
67.36000 439.491
67.40000 428.500
67.44000 456.970
67.48000 432.869
67.52000 459.001
67.56000 461.484
67.60000 468.795
67.64000 480.911
67.68000 470.131
67.72000 500.147
67.76000 485.703
67.80000 490.801
67.84000 500.527
67.88000 499.436
67.92000 497.280
67.96000 518.607
68.00000 518.331
68.04000 556.415
68.08000 562.635
68.12000 570.591
68.16000 579.248
68.20000 576.547
68.24000 603.384
68.28000 595.566
68.32000 628.233
68.36000 650.232
68.40000 675.649
68.44000 693.276
68.48000 723.256
68.52000 775.434
68.56000 856.585
68.60000 961.180
68.64000 1147.727
68.68000 1300.410
68.72000 1492.203
68.76000 1708.508
68.80000 1962.165
68.84000 2327.069
68.88000 2904.226
68.92000 5001.058
68.96000 12171.329
69.00000 27279.299
69.04000 42388.008
69.08000 49771.813
69.12000 52797.500
69.16000 56129.898
69.20000 54653.191
69.24000 43230.344
69.28000 32085.535
69.32000 26956.605
69.36000 25044.275
69.40000 20461.732
69.44000 11888.208
69.48000 5167.953
69.52000 2431.060
69.56000 1562.675
69.60000 1181.699
69.64000 995.671
69.68000 874.729
69.72000 813.803
69.76000 726.162
69.80000 680.343
69.84000 649.156
69.88000 581.899
69.92000 574.247
69.96000 545.871
70.00000 505.382