File: XRD/XRD/09-10-2025 Dep 8/XY Data/BTO_Mapping_Theta2Theta_09-10-2025_001_19_-2-091_19-890.xy
20.00000 486.291
20.04000 484.645
20.08000 486.029
20.12000 469.627
20.16000 495.618
20.20000 479.376
20.24000 492.831
20.28000 489.771
20.32000 486.396
20.36000 474.248
20.40000 473.056
20.44000 491.238
20.48000 486.197
20.52000 464.826
20.56000 469.979
20.60000 473.300
20.64000 488.412
20.68000 492.780
20.72000 480.592
20.76000 468.911
20.80000 466.084
20.84000 481.757
20.88000 477.207
20.92000 462.647
20.96000 488.974
21.00000 465.889
21.04000 477.148
21.08000 494.527
21.12000 500.797
21.16000 479.039
21.20000 471.727
21.24000 476.761
21.28000 470.268
21.32000 458.067
21.36000 490.351
21.40000 486.498
21.44000 477.774
21.48000 470.896
21.52000 471.976
21.56000 483.848
21.60000 482.712
21.64000 466.857
21.68000 480.895
21.72000 492.571
21.76000 493.217
21.80000 506.500
21.84000 509.572
21.88000 539.492
21.92000 543.041
21.96000 548.057
22.00000 605.216
22.04000 579.878
22.08000 597.387
22.12000 628.580
22.16000 631.925
22.20000 620.128
22.24000 583.048
22.28000 561.987
22.32000 556.573
22.36000 542.506
22.40000 511.745
22.44000 505.473
22.48000 486.567
22.52000 493.865
22.56000 480.570
22.60000 461.888
22.64000 464.999
22.68000 447.351
22.72000 471.960
22.76000 462.343
22.80000 455.080
22.84000 443.030
22.88000 439.881
22.92000 447.269
22.96000 438.835
23.00000 439.025
23.04000 455.479
23.08000 443.104
23.12000 454.014
23.16000 435.937
23.20000 441.895
23.24000 454.424
23.28000 447.193
23.32000 431.161
23.36000 444.035
23.40000 432.010
23.44000 411.630
23.48000 440.761
23.52000 431.881
23.56000 435.518
23.60000 430.039
23.64000 429.488
23.68000 426.554
23.72000 426.203
23.76000 433.464
23.80000 425.472
23.84000 452.481
23.88000 416.109
23.92000 407.068
23.96000 411.412
24.00000 425.342
24.04000 416.520
24.08000 435.874
24.12000 423.635
24.16000 417.689
24.20000 438.294
24.24000 434.659
24.28000 414.631
24.32000 413.034
24.36000 419.055
24.40000 406.733
24.44000 446.818
24.48000 432.024
24.52000 420.151
24.56000 413.077
24.60000 427.139
24.64000 426.154
24.68000 433.645
24.72000 420.732
24.76000 422.108
24.80000 384.657
24.84000 414.405
24.88000 410.027
24.92000 406.622
24.96000 406.444
25.00000 401.794
25.04000 411.154
25.08000 408.359
25.12000 422.646
25.16000 401.884
25.20000 400.319
25.24000 405.540
25.28000 417.011
25.32000 397.071
25.36000 417.959
25.40000 404.099
25.44000 409.497
25.48000 403.028
25.52000 398.659
25.56000 398.155
25.60000 393.476
25.64000 400.118
25.68000 415.835
25.72000 408.712
25.76000 393.045
25.80000 393.327
25.84000 382.729
25.88000 385.095
25.92000 408.947
25.96000 404.037
26.00000 406.324
26.04000 392.621
26.08000 402.506
26.12000 396.413
26.16000 402.567
26.20000 398.159
26.24000 398.711
26.28000 390.827
26.32000 396.809
26.36000 412.763
26.40000 392.743
26.44000 385.518
26.48000 396.001
26.52000 395.966
26.56000 385.394
26.60000 395.915
26.64000 388.001
26.68000 381.447
26.72000 392.083
26.76000 373.735
26.80000 385.665
26.84000 386.444
26.88000 398.540
26.92000 391.818
26.96000 362.228
27.00000 389.642
27.04000 395.736
27.08000 395.493
27.12000 368.027
27.16000 370.943
27.20000 381.957
27.24000 386.996
27.28000 374.676
27.32000 372.159
27.36000 366.314
27.40000 386.880
27.44000 387.061
27.48000 372.715
27.52000 379.676
27.56000 381.037
27.60000 397.585
27.64000 372.313
27.68000 378.054
27.72000 368.533
27.76000 384.439
27.80000 369.978
27.84000 351.962
27.88000 362.568
27.92000 368.289
27.96000 374.056
28.00000 369.950
28.04000 367.441
28.08000 368.178
28.12000 374.859
28.16000 375.624
28.20000 387.937
28.24000 386.950
28.28000 383.260
28.32000 366.659
28.36000 389.136
28.40000 361.769
28.44000 373.973
28.48000 371.213
28.52000 364.525
28.56000 350.827
28.60000 363.014
28.64000 366.140
28.68000 359.398
28.72000 348.741
28.76000 371.137
28.80000 357.423
28.84000 358.778
28.88000 353.615
28.92000 368.095
28.96000 357.921
29.00000 355.739
29.04000 371.537
29.08000 373.154
29.12000 338.588
29.16000 357.379
29.20000 356.884
29.24000 360.418
29.28000 349.019
29.32000 361.806
29.36000 358.563
29.40000 363.552
29.44000 373.002
29.48000 364.938
29.52000 377.352
29.56000 359.178
29.60000 377.380
29.64000 359.761
29.68000 366.874
29.72000 371.078
29.76000 387.521
29.80000 379.967
29.84000 393.652
29.88000 413.944
29.92000 433.431
29.96000 429.585
30.00000 439.545
30.04000 450.708
30.08000 467.069
30.12000 455.069
30.16000 442.122
30.20000 420.858
30.24000 430.668
30.28000 437.920
30.32000 405.696
30.36000 403.446
30.40000 422.672
30.44000 398.994
30.48000 389.943
30.52000 403.018
30.56000 411.180
30.60000 388.039
30.64000 418.828
30.68000 419.116
30.72000 424.892
30.76000 420.441
30.80000 421.236
30.84000 427.312
30.88000 441.998
30.92000 465.855
30.96000 470.298
31.00000 512.230
31.04000 541.252
31.08000 637.648
31.12000 755.851
31.16000 927.078
31.20000 1178.847
31.24000 1477.606
31.28000 2009.117
31.32000 2460.094
31.36000 2786.275
31.40000 3038.833
31.44000 2990.739
31.48000 2847.121
31.52000 2493.306
31.56000 1999.153
31.60000 1589.092
31.64000 1249.765
31.68000 1006.991
31.72000 825.924
31.76000 699.260
31.80000 583.241
31.84000 548.434
31.88000 488.371
31.92000 464.646
31.96000 408.113
32.00000 416.637
32.04000 391.036
32.08000 374.572
32.12000 375.469
32.16000 355.621
32.20000 362.039
32.24000 353.444
32.28000 362.016
32.32000 352.938
32.36000 352.039
32.40000 347.053
32.44000 337.582
32.48000 338.112
32.52000 344.811
32.56000 350.044
32.60000 328.041
32.64000 341.309
32.68000 330.746
32.72000 338.751
32.76000 335.600
32.80000 322.070
32.84000 318.613
32.88000 305.368
32.92000 324.690
32.96000 317.058
33.00000 311.479
33.04000 305.485
33.08000 313.902
33.12000 298.501
33.16000 300.801
33.20000 300.457
33.24000 323.069
33.28000 290.010
33.32000 308.338
33.36000 313.386
33.40000 300.118
33.44000 290.087
33.48000 304.820
33.52000 305.132
33.56000 289.794
33.60000 296.314
33.64000 304.870
33.68000 297.379
33.72000 293.172
33.76000 299.209
33.80000 299.104
33.84000 283.370
33.88000 299.934
33.92000 295.736
33.96000 295.271
34.00000 299.074
34.04000 291.883
34.08000 290.190
34.12000 290.938
34.16000 283.568
34.20000 281.718
34.24000 278.502
34.28000 291.958
34.32000 289.076
34.36000 268.911
34.40000 294.022
34.44000 280.721
34.48000 279.132
34.52000 284.550
34.56000 281.789
34.60000 291.173
34.64000 277.684
34.68000 288.064
34.72000 293.551
34.76000 289.401
34.80000 291.493
34.84000 275.235
34.88000 292.794
34.92000 279.747
34.96000 301.160
35.00000 284.823
35.04000 287.884
35.08000 266.613
35.12000 266.121
35.16000 282.476
35.20000 263.826
35.24000 295.226
35.28000 294.129
35.32000 276.555
35.36000 271.881
35.40000 272.530
35.44000 261.185
35.48000 278.426
35.52000 272.570
35.56000 292.868
35.60000 263.202
35.64000 264.128
35.68000 260.269
35.72000 277.937
35.76000 249.819
35.80000 260.728
35.84000 272.972
35.88000 283.000
35.92000 254.347
35.96000 277.044
36.00000 262.871
36.04000 268.390
36.08000 274.590
36.12000 254.977
36.16000 264.966
36.20000 259.964
36.24000 265.753
36.28000 257.271
36.32000 273.115
36.36000 257.171
36.40000 244.175
36.44000 269.360
36.48000 266.878
36.52000 265.452
36.56000 263.919
36.60000 254.305
36.64000 255.683
36.68000 273.190
36.72000 270.809
36.76000 263.442
36.80000 269.811
36.84000 271.870
36.88000 273.197
36.92000 291.616
36.96000 272.549
37.00000 291.088
37.04000 292.679
37.08000 290.790
37.12000 280.889
37.16000 262.846
37.20000 271.660
37.24000 269.524
37.28000 274.790
37.32000 265.444
37.36000 266.004
37.40000 274.311
37.44000 275.563
37.48000 261.780
37.52000 259.910
37.56000 255.622
37.60000 257.540
37.64000 251.370
37.68000 263.762
37.72000 260.994
37.76000 268.868
37.80000 249.661
37.84000 267.921
37.88000 274.878
37.92000 252.891
37.96000 255.905
38.00000 255.413
38.04000 267.279
38.08000 261.472
38.12000 269.384
38.16000 268.924
38.20000 275.027
38.24000 273.457
38.28000 287.015
38.32000 291.498
38.36000 315.106
38.40000 342.744
38.44000 382.289
38.48000 424.447
38.52000 497.925
38.56000 597.903
38.60000 707.060
38.64000 889.847
38.68000 994.017
38.72000 1116.773
38.76000 1136.715
38.80000 1069.478
38.84000 938.836
38.88000 818.988
38.92000 669.267
38.96000 513.345
39.00000 432.299
39.04000 370.454
39.08000 338.633
39.12000 291.796
39.16000 277.979
39.20000 265.719
39.24000 251.966
39.28000 261.250
39.32000 255.003
39.36000 248.148
39.40000 244.227
39.44000 267.492
39.48000 242.023
39.52000 228.719
39.56000 242.895
39.60000 241.041
39.64000 233.118
39.68000 239.653
39.72000 234.469
39.76000 225.134
39.80000 239.872
39.84000 224.404
39.88000 240.644
39.92000 242.758
39.96000 241.368
40.00000 232.526
40.04000 233.586
40.08000 232.235
40.12000 220.762
40.16000 232.580
40.20000 219.946
40.24000 225.907
40.28000 226.845
40.32000 227.290
40.36000 226.175
40.40000 217.998
40.44000 219.827
40.48000 223.886
40.52000 210.955
40.56000 224.909
40.60000 219.148
40.64000 217.272
40.68000 210.695
40.72000 214.344
40.76000 209.138
40.80000 212.838
40.84000 223.874
40.88000 213.331
40.92000 225.009
40.96000 219.463
41.00000 223.668
41.04000 213.347
41.08000 206.432
41.12000 200.322
41.16000 222.295
41.20000 207.257
41.24000 210.318
41.28000 223.151
41.32000 199.880
41.36000 219.550
41.40000 217.963
41.44000 214.536
41.48000 202.034
41.52000 219.091
41.56000 220.326
41.60000 211.862
41.64000 218.922
41.68000 210.813
41.72000 212.084
41.76000 212.652
41.80000 212.941
41.84000 197.132
41.88000 207.428
41.92000 220.683
41.96000 204.850
42.00000 200.828
42.04000 207.502
42.08000 206.231
42.12000 203.956
42.16000 206.109
42.20000 207.510
42.24000 198.938
42.28000 204.692
42.32000 196.404
42.36000 207.897
42.40000 206.865
42.44000 211.701
42.48000 214.041
42.52000 205.243
42.56000 201.591
42.60000 206.859
42.64000 208.807
42.68000 193.007
42.72000 197.929
42.76000 215.189
42.80000 209.080
42.84000 189.723
42.88000 205.492
42.92000 209.792
42.96000 198.527
43.00000 187.277
43.04000 195.610
43.08000 196.454
43.12000 200.471
43.16000 202.674
43.20000 202.262
43.24000 207.741
43.28000 188.010
43.32000 188.260
43.36000 189.983
43.40000 209.014
43.44000 214.125
43.48000 200.439
43.52000 188.950
43.56000 198.613
43.60000 188.902
43.64000 198.165
43.68000 193.337
43.72000 194.453
43.76000 193.097
43.80000 190.445
43.84000 197.392
43.88000 189.485
43.92000 196.779
43.96000 195.629
44.00000 186.181
44.04000 200.380
44.08000 192.405
44.12000 199.571
44.16000 199.752
44.20000 203.612
44.24000 186.844
44.28000 201.019
44.32000 198.595
44.36000 191.276
44.40000 188.574
44.44000 200.748
44.48000 188.734
44.52000 208.120
44.56000 192.865
44.60000 200.301
44.64000 191.180
44.68000 207.749
44.72000 217.400
44.76000 206.582
44.80000 217.568
44.84000 232.120
44.88000 241.648
44.92000 242.225
44.96000 279.015
45.00000 284.123
45.04000 297.249
45.08000 307.618
45.12000 305.405
45.16000 330.347
45.20000 322.309
45.24000 320.002
45.28000 312.733
45.32000 299.774
45.36000 275.843
45.40000 287.521
45.44000 277.539
45.48000 252.031
45.52000 255.654
45.56000 237.329
45.60000 231.938
45.64000 231.621
45.68000 223.841
45.72000 230.703
45.76000 215.257
45.80000 217.428
45.84000 213.575
45.88000 208.186
45.92000 217.384
45.96000 205.089
46.00000 190.808
46.04000 190.982
46.08000 186.098
46.12000 196.868
46.16000 188.877
46.20000 189.993
46.24000 175.775
46.28000 190.048
46.32000 183.881
46.36000 180.675
46.40000 180.494
46.44000 182.289
46.48000 180.298
46.52000 168.381
46.56000 176.755
46.60000 168.451
46.64000 160.890
46.68000 168.769
46.72000 166.085
46.76000 181.807
46.80000 181.804
46.84000 169.420
46.88000 168.741
46.92000 169.387
46.96000 167.971
47.00000 170.683
47.04000 171.653
47.08000 172.532
47.12000 172.158
47.16000 170.623
47.20000 172.885
47.24000 175.373
47.28000 177.965
47.32000 172.268
47.36000 166.584
47.40000 163.227
47.44000 165.917
47.48000 180.153
47.52000 165.310
47.56000 160.858
47.60000 162.846
47.64000 181.572
47.68000 169.998
47.72000 167.354
47.76000 172.626
47.80000 156.672
47.84000 165.761
47.88000 158.109
47.92000 167.788
47.96000 160.658
48.00000 160.733
48.04000 164.371
48.08000 164.392
48.12000 158.498
48.16000 168.401
48.20000 151.904
48.24000 159.148
48.28000 163.478
48.32000 155.937
48.36000 159.365
48.40000 153.675
48.44000 157.063
48.48000 171.706
48.52000 152.115
48.56000 151.683
48.60000 155.380
48.64000 156.694
48.68000 155.944
48.72000 155.572
48.76000 160.377
48.80000 160.397
48.84000 166.356
48.88000 158.708
48.92000 149.466
48.96000 147.520
49.00000 164.675
49.04000 165.053
49.08000 155.309
49.12000 164.688
49.16000 155.234
49.20000 168.178
49.24000 154.494
49.28000 152.674
49.32000 159.067
49.36000 155.010
49.40000 152.134
49.44000 160.569
49.48000 157.281
49.52000 155.201
49.56000 154.336
49.60000 142.693
49.64000 161.682
49.68000 155.593
49.72000 151.401
49.76000 156.051
49.80000 146.929
49.84000 158.635
49.88000 159.470
49.92000 164.449
49.96000 156.227
50.00000 157.202
50.04000 146.776
50.08000 149.592
50.12000 155.128
50.16000 152.590
50.20000 153.113
50.24000 161.939
50.28000 159.214
50.32000 166.074
50.36000 169.371
50.40000 172.846
50.44000 181.894
50.48000 177.541
50.52000 175.053
50.56000 187.579
50.60000 199.671
50.64000 214.370
50.68000 216.401
50.72000 218.335
50.76000 226.026
50.80000 228.850
50.84000 229.235
50.88000 225.200
50.92000 212.599
50.96000 196.269
51.00000 205.481
51.04000 182.756
51.08000 171.480
51.12000 171.693
51.16000 171.647
51.20000 163.076
51.24000 164.007
51.28000 158.698
51.32000 166.730
51.36000 148.492
51.40000 151.543
51.44000 148.174
51.48000 159.564
51.52000 154.877
51.56000 146.832
51.60000 156.570
51.64000 151.076
51.68000 142.777
51.72000 151.249
51.76000 149.736
51.80000 146.349
51.84000 138.523
51.88000 142.016
51.92000 140.775
51.96000 143.417
52.00000 149.903
52.04000 148.796
52.08000 142.873
52.12000 145.797
52.16000 149.431
52.20000 142.252
52.24000 139.858
52.28000 145.526
52.32000 143.856
52.36000 144.537
52.40000 152.475
52.44000 142.378
52.48000 139.289
52.52000 139.472
52.56000 149.878
52.60000 140.982
52.64000 140.279
52.68000 149.488
52.72000 143.951
52.76000 144.552
52.80000 135.502
52.84000 143.001
52.88000 132.378
52.92000 136.642
52.96000 143.698
53.00000 141.263
53.04000 141.242
53.08000 147.771
53.12000 137.159
53.16000 147.235
53.20000 147.352
53.24000 136.595
53.28000 140.417
53.32000 145.365
53.36000 143.108
53.40000 159.054
53.44000 158.056
53.48000 154.158
53.52000 144.348
53.56000 154.234
53.60000 148.324
53.64000 147.230
53.68000 144.753
53.72000 144.555
53.76000 152.428
53.80000 146.446
53.84000 159.311
53.88000 133.869
53.92000 145.113
53.96000 141.259
54.00000 141.012
54.04000 155.222
54.08000 146.109
54.12000 136.386
54.16000 129.115
54.20000 153.884
54.24000 140.871
54.28000 128.292
54.32000 137.583
54.36000 134.060
54.40000 132.739
54.44000 140.125
54.48000 141.662
54.52000 141.041
54.56000 140.663
54.60000 137.719
54.64000 145.344
54.68000 139.250
54.72000 138.056
54.76000 139.506
54.80000 138.165
54.84000 135.978
54.88000 139.034
54.92000 138.590
54.96000 142.761
55.00000 132.924
55.04000 152.046
55.08000 150.636
55.12000 154.166
55.16000 146.648
55.20000 139.879
55.24000 145.731
55.28000 157.291
55.32000 152.990
55.36000 158.166
55.40000 165.477
55.44000 159.880
55.48000 162.943
55.52000 165.142
55.56000 174.517
55.60000 180.501
55.64000 220.426
55.68000 229.679
55.72000 258.018
55.76000 281.049
55.80000 339.728
55.84000 392.755
55.88000 454.484
55.92000 507.264
55.96000 548.256
56.00000 564.738
56.04000 542.223
56.08000 514.081
56.12000 483.771
56.16000 422.112
56.20000 407.991
56.24000 344.636
56.28000 314.417
56.32000 271.395
56.36000 236.029
56.40000 219.277
56.44000 214.436
56.48000 186.933
56.52000 175.577
56.56000 169.976
56.60000 174.420
56.64000 160.026
56.68000 159.591
56.72000 156.166
56.76000 155.004
56.80000 148.579
56.84000 132.018
56.88000 134.262
56.92000 132.332
56.96000 125.945
57.00000 151.314
57.04000 129.790
57.08000 132.631
57.12000 138.803
57.16000 125.885
57.20000 127.798
57.24000 134.134
57.28000 132.256
57.32000 134.805
57.36000 125.024
57.40000 139.387
57.44000 128.629
57.48000 132.205
57.52000 126.729
57.56000 125.607
57.60000 131.730
57.64000 127.097
57.68000 134.502
57.72000 125.738
57.76000 129.578
57.80000 120.854
57.84000 124.074
57.88000 137.164
57.92000 127.441
57.96000 121.567
58.00000 117.901
58.04000 133.091
58.08000 125.106
58.12000 122.797
58.16000 126.728
58.20000 127.946
58.24000 127.628
58.28000 125.604
58.32000 137.961
58.36000 121.643
58.40000 125.878
58.44000 133.933
58.48000 125.692
58.52000 119.902
58.56000 130.885
58.60000 124.731
58.64000 128.513
58.68000 124.620
58.72000 127.319
58.76000 122.002
58.80000 113.172
58.84000 120.927
58.88000 119.363
58.92000 123.528
58.96000 111.352
59.00000 119.119
59.04000 125.226
59.08000 128.628
59.12000 121.152
59.16000 110.263
59.20000 113.546
59.24000 122.957
59.28000 119.532
59.32000 123.567
59.36000 121.671
59.40000 119.257
59.44000 116.500
59.48000 105.964
59.52000 123.068
59.56000 128.524
59.60000 106.985
59.64000 117.184
59.68000 110.821
59.72000 119.151
59.76000 119.907
59.80000 119.335
59.84000 120.752
59.88000 117.772
59.92000 115.886
59.96000 114.036
60.00000 120.053
60.04000 117.971
60.08000 125.499
60.12000 121.997
60.16000 122.883
60.20000 131.130
60.24000 116.961
60.28000 123.854
60.32000 117.135
60.36000 113.490
60.40000 118.748
60.44000 121.123
60.48000 122.725
60.52000 115.966
60.56000 121.215
60.60000 115.539
60.64000 117.323
60.68000 117.890
60.72000 121.708
60.76000 123.784
60.80000 125.019
60.84000 115.617
60.88000 125.766
60.92000 121.924
60.96000 119.077
61.00000 132.239
61.04000 114.898
61.08000 127.347
61.12000 120.201
61.16000 126.316
61.20000 122.954
61.24000 118.218
61.28000 116.561
61.32000 120.999
61.36000 118.542
61.40000 131.785
61.44000 125.352
61.48000 130.876
61.52000 174.808
61.56000 235.170
61.60000 296.436
61.64000 341.011
61.68000 356.934
61.72000 362.502
61.76000 327.036
61.80000 259.988
61.84000 191.068
61.88000 148.301
61.92000 146.837
61.96000 141.011
62.00000 130.179
62.04000 140.922
62.08000 131.479
62.12000 140.609
62.16000 134.149
62.20000 127.486
62.24000 130.749
62.28000 125.489
62.32000 136.897
62.36000 132.321
62.40000 132.826
62.44000 133.672
62.48000 134.360
62.52000 146.844
62.56000 137.267
62.60000 145.020
62.64000 144.675
62.68000 134.757
62.72000 146.628
62.76000 138.124
62.80000 133.419
62.84000 133.232
62.88000 132.354
62.92000 138.831
62.96000 125.883
63.00000 139.089
63.04000 127.021
63.08000 135.497
63.12000 136.905
63.16000 134.433
63.20000 139.557
63.24000 129.552
63.28000 138.618
63.32000 140.243
63.36000 130.221
63.40000 138.880
63.44000 133.458
63.48000 136.001
63.52000 144.358
63.56000 141.341
63.60000 141.104
63.64000 144.045
63.68000 138.971
63.72000 141.699
63.76000 146.328
63.80000 148.008
63.84000 143.772
63.88000 145.665
63.92000 162.160
63.96000 145.820
64.00000 145.938
64.04000 145.494
64.08000 157.816
64.12000 151.820
64.16000 159.083
64.20000 165.506
64.24000 153.891
64.28000 162.585
64.32000 150.670
64.36000 150.106
64.40000 170.467
64.44000 163.548
64.48000 159.028
64.52000 166.153
64.56000 166.620
64.60000 164.267
64.64000 172.290
64.68000 175.560
64.72000 171.843
64.76000 177.149
64.80000 174.827
64.84000 170.155
64.88000 191.152
64.92000 184.672
64.96000 189.595
65.00000 210.458
65.04000 200.747
65.08000 221.194
65.12000 206.419
65.16000 224.137
65.20000 230.721
65.24000 243.847
65.28000 257.874
65.32000 273.287
65.36000 304.955
65.40000 332.292
65.44000 360.865
65.48000 378.878
65.52000 420.477
65.56000 477.546
65.60000 534.405
65.64000 590.797
65.68000 822.568
65.72000 1280.974
65.76000 1859.291
65.80000 2305.572
65.84000 2479.567
65.88000 2538.371
65.92000 2382.016
65.96000 1868.975
66.00000 1284.402
66.04000 797.262
66.08000 574.505
66.12000 493.735
66.16000 431.159
66.20000 433.225
66.24000 485.380
66.28000 538.759
66.32000 645.872
66.36000 708.304
66.40000 772.790
66.44000 763.225
66.48000 700.160
66.52000 617.311
66.56000 526.502
66.60000 452.077
66.64000 416.074
66.68000 393.830
66.72000 396.207
66.76000 390.036
66.80000 402.278
66.84000 405.225
66.88000 399.823
66.92000 401.196
66.96000 403.379
67.00000 412.516
67.04000 423.183
67.08000 435.513
67.12000 419.672
67.16000 439.270
67.20000 436.002
67.24000 442.634
67.28000 448.074
67.32000 454.164
67.36000 458.180
67.40000 452.027
67.44000 486.083
67.48000 478.767
67.52000 483.245
67.56000 471.792
67.60000 500.586
67.64000 513.607
67.68000 483.268
67.72000 527.501
67.76000 526.151
67.80000 519.848
67.84000 502.793
67.88000 540.294
67.92000 517.323
67.96000 557.017
68.00000 553.752
68.04000 569.773
68.08000 580.681
68.12000 591.151
68.16000 597.283
68.20000 616.553
68.24000 635.905
68.28000 656.453
68.32000 674.519
68.36000 713.353
68.40000 700.733
68.44000 774.756
68.48000 796.390
68.52000 814.676
68.56000 919.410
68.60000 1018.458
68.64000 1201.015
68.68000 1374.937
68.72000 1618.812
68.76000 1850.542
68.80000 2122.292
68.84000 2499.689
68.88000 3228.510
68.92000 5548.164
68.96000 13477.938
69.00000 30239.381
69.04000 47012.125
69.08000 55496.488
69.12000 58958.598
69.16000 62985.074
69.20000 61219.918
69.24000 48876.438
69.28000 36606.801
69.32000 30177.082
69.36000 28054.563
69.40000 22806.883
69.44000 13555.837
69.48000 5980.833
69.52000 2768.255
69.56000 1665.683
69.60000 1276.321
69.64000 1071.858
69.68000 958.694
69.72000 845.584
69.76000 776.753
69.80000 708.164
69.84000 650.886
69.88000 634.543
69.92000 571.054
69.96000 563.771
70.00000 562.867