File: XRD/XRD/09-10-2025 Dep 8/XY Data/BTO_Mapping_Theta2Theta_09-10-2025_001_59_18-271_-8-135.xy
20.00000 484.674
20.04000 471.174
20.08000 468.435
20.12000 493.681
20.16000 473.097
20.20000 493.778
20.24000 504.994
20.28000 481.690
20.32000 476.260
20.36000 465.956
20.40000 495.213
20.44000 469.847
20.48000 476.654
20.52000 495.011
20.56000 495.830
20.60000 463.935
20.64000 493.098
20.68000 483.330
20.72000 454.449
20.76000 482.865
20.80000 487.684
20.84000 477.674
20.88000 476.703
20.92000 486.285
20.96000 480.843
21.00000 476.659
21.04000 482.732
21.08000 479.895
21.12000 472.567
21.16000 487.298
21.20000 499.131
21.24000 485.262
21.28000 478.512
21.32000 484.348
21.36000 477.403
21.40000 476.400
21.44000 474.596
21.48000 483.728
21.52000 476.881
21.56000 485.779
21.60000 486.636
21.64000 490.881
21.68000 481.190
21.72000 486.674
21.76000 477.155
21.80000 497.368
21.84000 497.198
21.88000 505.541
21.92000 527.859
21.96000 534.911
22.00000 555.693
22.04000 592.683
22.08000 604.095
22.12000 576.704
22.16000 585.485
22.20000 595.577
22.24000 589.287
22.28000 548.607
22.32000 556.613
22.36000 527.122
22.40000 523.012
22.44000 510.302
22.48000 506.505
22.52000 502.068
22.56000 485.967
22.60000 480.756
22.64000 463.730
22.68000 480.441
22.72000 458.165
22.76000 450.799
22.80000 447.669
22.84000 465.377
22.88000 440.192
22.92000 447.691
22.96000 442.490
23.00000 456.361
23.04000 438.998
23.08000 447.676
23.12000 440.919
23.16000 442.743
23.20000 441.178
23.24000 446.060
23.28000 457.501
23.32000 421.982
23.36000 439.151
23.40000 432.304
23.44000 428.444
23.48000 443.131
23.52000 423.436
23.56000 421.333
23.60000 435.236
23.64000 429.673
23.68000 419.142
23.72000 426.680
23.76000 432.972
23.80000 433.482
23.84000 425.911
23.88000 417.598
23.92000 414.645
23.96000 420.516
24.00000 422.888
24.04000 418.911
24.08000 445.467
24.12000 438.991
24.16000 443.928
24.20000 434.815
24.24000 436.872
24.28000 438.928
24.32000 408.994
24.36000 416.153
24.40000 409.421
24.44000 418.129
24.48000 407.906
24.52000 424.789
24.56000 440.254
24.60000 408.531
24.64000 416.497
24.68000 412.373
24.72000 412.684
24.76000 411.601
24.80000 398.233
24.84000 413.791
24.88000 415.283
24.92000 416.984
24.96000 411.869
25.00000 411.231
25.04000 421.602
25.08000 418.884
25.12000 417.320
25.16000 404.472
25.20000 411.031
25.24000 413.700
25.28000 399.778
25.32000 421.338
25.36000 415.628
25.40000 398.257
25.44000 407.550
25.48000 404.084
25.52000 396.297
25.56000 389.796
25.60000 411.555
25.64000 401.458
25.68000 382.810
25.72000 401.546
25.76000 409.913
25.80000 393.572
25.84000 393.064
25.88000 402.252
25.92000 375.743
25.96000 410.073
26.00000 408.322
26.04000 396.028
26.08000 394.344
26.12000 384.732
26.16000 389.280
26.20000 408.056
26.24000 405.469
26.28000 386.713
26.32000 398.654
26.36000 402.865
26.40000 388.016
26.44000 382.428
26.48000 392.484
26.52000 393.999
26.56000 397.952
26.60000 405.200
26.64000 383.092
26.68000 393.291
26.72000 371.166
26.76000 383.847
26.80000 391.563
26.84000 389.030
26.88000 377.565
26.92000 387.645
26.96000 390.781
27.00000 394.392
27.04000 374.359
27.08000 385.808
27.12000 385.843
27.16000 373.845
27.20000 373.495
27.24000 385.008
27.28000 361.358
27.32000 381.684
27.36000 375.268
27.40000 382.472
27.44000 389.925
27.48000 372.748
27.52000 381.126
27.56000 395.876
27.60000 379.499
27.64000 381.882
27.68000 381.119
27.72000 385.412
27.76000 376.378
27.80000 363.027
27.84000 369.959
27.88000 380.252
27.92000 375.432
27.96000 384.833
28.00000 387.959
28.04000 364.092
28.08000 361.516
28.12000 376.415
28.16000 379.182
28.20000 356.530
28.24000 371.781
28.28000 377.985
28.32000 372.605
28.36000 370.548
28.40000 362.801
28.44000 377.112
28.48000 369.606
28.52000 364.838
28.56000 361.705
28.60000 371.211
28.64000 360.340
28.68000 366.449
28.72000 365.551
28.76000 350.576
28.80000 370.193
28.84000 369.820
28.88000 368.365
28.92000 360.705
28.96000 369.348
29.00000 354.268
29.04000 354.760
29.08000 358.237
29.12000 352.167
29.16000 370.133
29.20000 361.694
29.24000 360.584
29.28000 353.013
29.32000 360.788
29.36000 358.427
29.40000 345.615
29.44000 360.296
29.48000 345.051
29.52000 372.226
29.56000 356.457
29.60000 358.187
29.64000 363.918
29.68000 392.527
29.72000 367.126
29.76000 366.158
29.80000 375.762
29.84000 390.961
29.88000 374.247
29.92000 405.506
29.96000 421.484
30.00000 451.265
30.04000 455.082
30.08000 463.570
30.12000 421.136
30.16000 423.382
30.20000 446.211
30.24000 418.304
30.28000 430.107
30.32000 415.023
30.36000 384.338
30.40000 390.762
30.44000 386.934
30.48000 404.304
30.52000 394.696
30.56000 396.940
30.60000 381.086
30.64000 410.217
30.68000 391.086
30.72000 398.655
30.76000 413.193
30.80000 436.237
30.84000 428.052
30.88000 432.699
30.92000 440.173
30.96000 464.106
31.00000 537.311
31.04000 542.407
31.08000 622.516
31.12000 736.935
31.16000 894.768
31.20000 1163.577
31.24000 1467.181
31.28000 1900.133
31.32000 2294.255
31.36000 2610.490
31.40000 2804.969
31.44000 2767.766
31.48000 2597.447
31.52000 2299.628
31.56000 1894.782
31.60000 1479.254
31.64000 1189.743
31.68000 927.333
31.72000 752.545
31.76000 674.301
31.80000 565.915
31.84000 520.492
31.88000 483.075
31.92000 453.489
31.96000 414.299
32.00000 379.521
32.04000 376.954
32.08000 375.824
32.12000 374.661
32.16000 355.960
32.20000 355.506
32.24000 352.970
32.28000 353.022
32.32000 362.596
32.36000 344.776
32.40000 334.382
32.44000 342.001
32.48000 336.006
32.52000 328.848
32.56000 338.671
32.60000 328.576
32.64000 344.917
32.68000 325.793
32.72000 327.986
32.76000 324.748
32.80000 317.789
32.84000 316.245
32.88000 324.409
32.92000 321.303
32.96000 326.660
33.00000 328.118
33.04000 306.698
33.08000 316.782
33.12000 314.218
33.16000 308.877
33.20000 310.321
33.24000 300.622
33.28000 309.108
33.32000 313.805
33.36000 306.781
33.40000 313.618
33.44000 302.804
33.48000 308.853
33.52000 310.283
33.56000 288.860
33.60000 291.401
33.64000 311.463
33.68000 297.415
33.72000 299.457
33.76000 288.269
33.80000 284.615
33.84000 280.930
33.88000 286.068
33.92000 290.043
33.96000 296.848
34.00000 299.178
34.04000 289.058
34.08000 288.728
34.12000 296.162
34.16000 288.754
34.20000 284.869
34.24000 294.564
34.28000 295.902
34.32000 289.913
34.36000 295.686
34.40000 279.873
34.44000 291.230
34.48000 280.424
34.52000 286.982
34.56000 291.193
34.60000 283.078
34.64000 279.016
34.68000 285.250
34.72000 279.934
34.76000 275.066
34.80000 287.176
34.84000 278.899
34.88000 285.659
34.92000 283.726
34.96000 281.154
35.00000 266.157
35.04000 279.472
35.08000 276.674
35.12000 275.081
35.16000 278.894
35.20000 270.080
35.24000 269.582
35.28000 269.617
35.32000 268.325
35.36000 274.461
35.40000 257.480
35.44000 272.622
35.48000 258.095
35.52000 268.130
35.56000 280.424
35.60000 281.238
35.64000 278.087
35.68000 283.237
35.72000 272.153
35.76000 269.960
35.80000 272.014
35.84000 248.814
35.88000 267.656
35.92000 263.010
35.96000 259.329
36.00000 265.497
36.04000 266.613
36.08000 268.048
36.12000 267.254
36.16000 249.721
36.20000 255.869
36.24000 261.106
36.28000 273.021
36.32000 264.516
36.36000 253.106
36.40000 264.709
36.44000 268.474
36.48000 267.156
36.52000 253.603
36.56000 255.993
36.60000 264.288
36.64000 250.287
36.68000 263.757
36.72000 259.082
36.76000 269.997
36.80000 264.459
36.84000 290.213
36.88000 270.137
36.92000 285.912
36.96000 265.514
37.00000 275.850
37.04000 280.863
37.08000 291.303
37.12000 278.046
37.16000 274.901
37.20000 266.770
37.24000 265.231
37.28000 269.844
37.32000 259.303
37.36000 276.986
37.40000 263.444
37.44000 252.382
37.48000 245.842
37.52000 249.360
37.56000 262.122
37.60000 265.023
37.64000 260.972
37.68000 257.325
37.72000 271.707
37.76000 250.753
37.80000 274.961
37.84000 274.642
37.88000 267.135
37.92000 269.237
37.96000 260.166
38.00000 258.028
38.04000 272.606
38.08000 266.747
38.12000 281.918
38.16000 289.253
38.20000 276.237
38.24000 271.012
38.28000 276.248
38.32000 301.616
38.36000 290.456
38.40000 323.753
38.44000 343.588
38.48000 374.310
38.52000 478.048
38.56000 556.002
38.60000 706.455
38.64000 847.688
38.68000 950.742
38.72000 1078.019
38.76000 1069.199
38.80000 1057.286
38.84000 949.797
38.88000 835.378
38.92000 700.542
38.96000 545.185
39.00000 454.012
39.04000 364.663
39.08000 327.666
39.12000 292.507
39.16000 288.931
39.20000 267.807
39.24000 265.189
39.28000 274.221
39.32000 251.053
39.36000 251.100
39.40000 262.683
39.44000 249.279
39.48000 249.431
39.52000 253.303
39.56000 231.352
39.60000 231.005
39.64000 232.054
39.68000 228.756
39.72000 227.826
39.76000 223.032
39.80000 230.680
39.84000 230.354
39.88000 231.044
39.92000 235.285
39.96000 233.116
40.00000 229.846
40.04000 243.173
40.08000 233.838
40.12000 232.918
40.16000 225.104
40.20000 219.066
40.24000 222.170
40.28000 242.868
40.32000 227.726
40.36000 229.881
40.40000 224.462
40.44000 233.671
40.48000 211.181
40.52000 230.979
40.56000 222.750
40.60000 213.540
40.64000 229.305
40.68000 224.050
40.72000 222.808
40.76000 230.109
40.80000 216.433
40.84000 221.863
40.88000 216.790
40.92000 225.988
40.96000 217.873
41.00000 228.592
41.04000 208.202
41.08000 217.642
41.12000 208.741
41.16000 212.575
41.20000 203.114
41.24000 223.425
41.28000 224.950
41.32000 221.993
41.36000 215.937
41.40000 207.536
41.44000 211.550
41.48000 205.648
41.52000 206.181
41.56000 215.552
41.60000 213.470
41.64000 211.961
41.68000 220.691
41.72000 206.851
41.76000 224.193
41.80000 214.076
41.84000 199.089
41.88000 208.106
41.92000 214.920
41.96000 208.674
42.00000 206.717
42.04000 208.700
42.08000 219.374
42.12000 203.342
42.16000 208.155
42.20000 202.695
42.24000 201.020
42.28000 200.424
42.32000 211.712
42.36000 199.975
42.40000 209.328
42.44000 216.254
42.48000 200.731
42.52000 202.637
42.56000 197.081
42.60000 204.549
42.64000 199.466
42.68000 206.042
42.72000 202.005
42.76000 201.557
42.80000 198.696
42.84000 197.353
42.88000 203.463
42.92000 192.412
42.96000 197.320
43.00000 194.078
43.04000 208.570
43.08000 205.425
43.12000 200.145
43.16000 212.337
43.20000 215.968
43.24000 198.788
43.28000 213.153
43.32000 187.414
43.36000 194.566
43.40000 200.308
43.44000 192.405
43.48000 204.422
43.52000 200.013
43.56000 191.979
43.60000 187.123
43.64000 212.567
43.68000 210.186
43.72000 194.952
43.76000 195.378
43.80000 185.828
43.84000 196.260
43.88000 206.847
43.92000 191.123
43.96000 204.271
44.00000 193.840
44.04000 189.813
44.08000 188.313
44.12000 186.534
44.16000 195.195
44.20000 192.752
44.24000 192.138
44.28000 194.647
44.32000 202.500
44.36000 200.211
44.40000 187.740
44.44000 189.206
44.48000 194.625
44.52000 203.010
44.56000 201.374
44.60000 205.912
44.64000 187.335
44.68000 196.846
44.72000 210.179
44.76000 215.801
44.80000 209.695
44.84000 220.279
44.88000 219.688
44.92000 232.527
44.96000 242.347
45.00000 263.560
45.04000 273.604
45.08000 290.184
45.12000 279.389
45.16000 297.930
45.20000 277.770
45.24000 279.486
45.28000 294.185
45.32000 270.286
45.36000 289.935
45.40000 287.604
45.44000 279.944
45.48000 263.482
45.52000 255.904
45.56000 240.233
45.60000 226.337
45.64000 228.494
45.68000 221.212
45.72000 219.315
45.76000 218.288
45.80000 225.504
45.84000 207.740
45.88000 199.365
45.92000 197.242
45.96000 202.715
46.00000 189.755
46.04000 195.289
46.08000 193.611
46.12000 187.082
46.16000 192.809
46.20000 191.722
46.24000 190.899
46.28000 173.146
46.32000 177.850
46.36000 188.500
46.40000 177.321
46.44000 180.975
46.48000 184.303
46.52000 181.173
46.56000 164.084
46.60000 179.933
46.64000 189.230
46.68000 178.274
46.72000 180.073
46.76000 171.424
46.80000 168.131
46.84000 174.055
46.88000 165.634
46.92000 171.903
46.96000 174.222
47.00000 166.953
47.04000 168.936
47.08000 172.729
47.12000 165.986
47.16000 174.358
47.20000 168.634
47.24000 168.613
47.28000 170.163
47.32000 169.841
47.36000 177.844
47.40000 172.054
47.44000 176.469
47.48000 176.970
47.52000 176.483
47.56000 169.328
47.60000 158.063
47.64000 172.595
47.68000 162.944
47.72000 164.304
47.76000 161.005
47.80000 164.302
47.84000 163.883
47.88000 164.358
47.92000 169.184
47.96000 153.697
48.00000 163.485
48.04000 151.979
48.08000 163.056
48.12000 168.442
48.16000 164.515
48.20000 156.904
48.24000 153.071
48.28000 157.173
48.32000 168.072
48.36000 161.585
48.40000 160.953
48.44000 151.502
48.48000 165.073
48.52000 164.947
48.56000 156.569
48.60000 154.715
48.64000 159.427
48.68000 155.730
48.72000 154.753
48.76000 161.269
48.80000 161.931
48.84000 172.022
48.88000 154.243
48.92000 165.592
48.96000 152.113
49.00000 163.863
49.04000 155.918
49.08000 156.830
49.12000 142.212
49.16000 154.574
49.20000 165.013
49.24000 154.283
49.28000 161.046
49.32000 153.994
49.36000 156.343
49.40000 161.608
49.44000 160.617
49.48000 164.095
49.52000 160.892
49.56000 151.197
49.60000 148.106
49.64000 148.032
49.68000 151.756
49.72000 151.944
49.76000 149.469
49.80000 152.702
49.84000 148.214
49.88000 149.891
49.92000 151.798
49.96000 144.487
50.00000 138.456
50.04000 164.384
50.08000 158.579
50.12000 157.882
50.16000 162.804
50.20000 155.582
50.24000 155.560
50.28000 153.113
50.32000 147.959
50.36000 164.546
50.40000 161.854
50.44000 164.185
50.48000 174.228
50.52000 172.647
50.56000 179.927
50.60000 191.885
50.64000 196.832
50.68000 223.097
50.72000 226.890
50.76000 218.498
50.80000 226.545
50.84000 226.358
50.88000 211.994
50.92000 208.610
50.96000 209.793
51.00000 190.953
51.04000 178.878
51.08000 186.996
51.12000 171.821
51.16000 168.623
51.20000 157.084
51.24000 152.260
51.28000 160.991
51.32000 150.754
51.36000 153.596
51.40000 152.260
51.44000 160.779
51.48000 143.129
51.52000 144.020
51.56000 138.237
51.60000 150.708
51.64000 140.942
51.68000 145.081
51.72000 148.505
51.76000 139.640
51.80000 153.844
51.84000 141.582
51.88000 137.370
51.92000 154.480
51.96000 146.430
52.00000 129.124
52.04000 152.561
52.08000 141.928
52.12000 153.520
52.16000 135.121
52.20000 150.936
52.24000 149.020
52.28000 148.813
52.32000 135.342
52.36000 131.624
52.40000 141.936
52.44000 126.358
52.48000 140.668
52.52000 146.063
52.56000 133.819
52.60000 146.652
52.64000 141.248
52.68000 137.683
52.72000 130.930
52.76000 141.899
52.80000 133.702
52.84000 129.962
52.88000 148.808
52.92000 146.995
52.96000 142.624
53.00000 140.684
53.04000 141.282
53.08000 137.769
53.12000 141.281
53.16000 137.755
53.20000 148.428
53.24000 143.169
53.28000 153.878
53.32000 152.335
53.36000 162.282
53.40000 153.155
53.44000 154.768
53.48000 162.536
53.52000 150.200
53.56000 155.373
53.60000 153.692
53.64000 142.224
53.68000 135.649
53.72000 144.513
53.76000 133.580
53.80000 146.108
53.84000 149.581
53.88000 148.710
53.92000 136.731
53.96000 153.381
54.00000 133.401
54.04000 143.775
54.08000 144.113
54.12000 143.358
54.16000 135.168
54.20000 140.504
54.24000 127.053
54.28000 142.024
54.32000 141.509
54.36000 141.941
54.40000 135.081
54.44000 143.302
54.48000 145.109
54.52000 144.598
54.56000 133.702
54.60000 138.766
54.64000 137.061
54.68000 138.535
54.72000 142.678
54.76000 134.874
54.80000 141.066
54.84000 134.858
54.88000 144.722
54.92000 149.711
54.96000 139.434
55.00000 149.155
55.04000 146.808
55.08000 142.819
55.12000 144.491
55.16000 142.339
55.20000 142.486
55.24000 153.686
55.28000 153.757
55.32000 147.603
55.36000 145.336
55.40000 156.311
55.44000 148.919
55.48000 157.369
55.52000 174.824
55.56000 179.576
55.60000 189.005
55.64000 191.793
55.68000 216.264
55.72000 241.429
55.76000 265.066
55.80000 324.129
55.84000 387.419
55.88000 416.310
55.92000 491.680
55.96000 517.421
56.00000 568.755
56.04000 544.978
56.08000 508.339
56.12000 489.258
56.16000 434.050
56.20000 391.758
56.24000 355.728
56.28000 309.721
56.32000 268.834
56.36000 252.099
56.40000 221.541
56.44000 220.440
56.48000 181.156
56.52000 181.983
56.56000 175.924
56.60000 175.749
56.64000 158.584
56.68000 156.961
56.72000 157.358
56.76000 147.467
56.80000 146.577
56.84000 146.077
56.88000 133.400
56.92000 143.493
56.96000 138.482
57.00000 130.878
57.04000 134.285
57.08000 126.499
57.12000 130.974
57.16000 124.254
57.20000 133.449
57.24000 133.464
57.28000 131.216
57.32000 130.883
57.36000 132.509
57.40000 119.048
57.44000 132.386
57.48000 128.067
57.52000 127.538
57.56000 116.654
57.60000 122.609
57.64000 130.721
57.68000 125.689
57.72000 121.200
57.76000 140.544
57.80000 129.629
57.84000 134.802
57.88000 123.184
57.92000 132.319
57.96000 125.124
58.00000 124.001
58.04000 122.393
58.08000 122.130
58.12000 128.154
58.16000 136.925
58.20000 129.976
58.24000 119.730
58.28000 129.297
58.32000 132.022
58.36000 127.810
58.40000 132.262
58.44000 123.601
58.48000 117.895
58.52000 119.574
58.56000 125.617
58.60000 115.719
58.64000 118.797
58.68000 116.527
58.72000 114.891
58.76000 111.559
58.80000 114.773
58.84000 117.386
58.88000 119.836
58.92000 117.687
58.96000 111.450
59.00000 109.763
59.04000 124.078
59.08000 118.367
59.12000 121.081
59.16000 123.265
59.20000 127.454
59.24000 122.606
59.28000 129.406
59.32000 120.260
59.36000 122.173
59.40000 123.454
59.44000 117.256
59.48000 117.450
59.52000 109.173
59.56000 122.144
59.60000 120.992
59.64000 120.787
59.68000 113.580
59.72000 114.498
59.76000 127.122
59.80000 119.209
59.84000 121.481
59.88000 116.688
59.92000 119.677
59.96000 118.455
60.00000 116.412
60.04000 120.219
60.08000 116.092
60.12000 124.925
60.16000 120.783
60.20000 125.590
60.24000 123.005
60.28000 115.489
60.32000 116.297
60.36000 116.897
60.40000 113.357
60.44000 121.333
60.48000 120.893
60.52000 113.730
60.56000 118.636
60.60000 121.860
60.64000 112.210
60.68000 121.589
60.72000 112.869
60.76000 120.530
60.80000 116.211
60.84000 113.219
60.88000 121.580
60.92000 117.643
60.96000 124.954
61.00000 115.723
61.04000 126.558
61.08000 124.045
61.12000 123.043
61.16000 113.299
61.20000 116.808
61.24000 134.072
61.28000 122.902
61.32000 121.365
61.36000 134.705
61.40000 132.326
61.44000 131.235
61.48000 148.237
61.52000 166.191
61.56000 239.046
61.60000 278.984
61.64000 312.805
61.68000 319.885
61.72000 327.468
61.76000 302.031
61.80000 246.107
61.84000 174.760
61.88000 152.124
61.92000 128.513
61.96000 127.591
62.00000 137.284
62.04000 126.531
62.08000 123.643
62.12000 133.509
62.16000 129.000
62.20000 122.323
62.24000 122.549
62.28000 140.540
62.32000 135.062
62.36000 138.154
62.40000 142.553
62.44000 137.083
62.48000 142.233
62.52000 140.488
62.56000 134.584
62.60000 128.792
62.64000 136.007
62.68000 130.775
62.72000 136.446
62.76000 130.452
62.80000 138.963
62.84000 140.807
62.88000 135.132
62.92000 134.148
62.96000 135.744
63.00000 144.494
63.04000 136.998
63.08000 139.794
63.12000 136.763
63.16000 131.745
63.20000 130.419
63.24000 129.786
63.28000 135.757
63.32000 130.888
63.36000 135.145
63.40000 130.411
63.44000 147.767
63.48000 138.576
63.52000 132.371
63.56000 141.724
63.60000 145.917
63.64000 150.625
63.68000 147.298
63.72000 152.132
63.76000 144.331
63.80000 145.285
63.84000 151.622
63.88000 153.720
63.92000 146.618
63.96000 151.191
64.00000 141.109
64.04000 145.151
64.08000 139.133
64.12000 146.716
64.16000 155.321
64.20000 162.242
64.24000 150.852
64.28000 144.831
64.32000 155.576
64.36000 148.216
64.40000 169.331
64.44000 162.174
64.48000 153.157
64.52000 168.073
64.56000 179.195
64.60000 161.921
64.64000 173.036
64.68000 170.600
64.72000 177.870
64.76000 176.884
64.80000 179.429
64.84000 185.017
64.88000 187.725
64.92000 187.493
64.96000 195.001
65.00000 200.314
65.04000 203.523
65.08000 205.322
65.12000 217.640
65.16000 228.591
65.20000 237.685
65.24000 232.546
65.28000 251.285
65.32000 265.708
65.36000 274.181
65.40000 313.487
65.44000 347.112
65.48000 384.883
65.52000 407.233
65.56000 440.949
65.60000 490.410
65.64000 571.935
65.68000 797.827
65.72000 1179.962
65.76000 1700.428
65.80000 2117.101
65.84000 2291.447
65.88000 2337.962
65.92000 2219.057
65.96000 1765.005
66.00000 1139.664
66.04000 735.905
66.08000 524.408
66.12000 453.431
66.16000 433.274
66.20000 415.405
66.24000 432.817
66.28000 517.835
66.32000 627.550
66.36000 686.694
66.40000 688.597
66.44000 692.387
66.48000 678.013
66.52000 603.120
66.56000 462.285
66.60000 415.110
66.64000 389.005
66.68000 370.511
66.72000 386.340
66.76000 374.599
66.80000 382.846
66.84000 383.487
66.88000 395.146
66.92000 394.176
66.96000 398.982
67.00000 393.845
67.04000 392.066
67.08000 395.098
67.12000 400.064
67.16000 414.170
67.20000 397.329
67.24000 417.986
67.28000 424.501
67.32000 449.017
67.36000 432.410
67.40000 445.719
67.44000 439.275
67.48000 434.169
67.52000 436.439
67.56000 454.920
67.60000 477.246
67.64000 483.715
67.68000 509.128
67.72000 486.199
67.76000 500.992
67.80000 494.445
67.84000 483.505
67.88000 521.279
67.92000 527.728
67.96000 510.947
68.00000 530.162
68.04000 545.815
68.08000 550.041
68.12000 570.107
68.16000 568.456
68.20000 596.604
68.24000 593.272
68.28000 597.980
68.32000 651.001
68.36000 646.244
68.40000 683.516
68.44000 700.016
68.48000 752.144
68.52000 813.843
68.56000 849.713
68.60000 989.916
68.64000 1121.381
68.68000 1333.049
68.72000 1543.461
68.76000 1764.806
68.80000 1962.177
68.84000 2295.381
68.88000 2942.547
68.92000 5070.052
68.96000 12379.693
69.00000 27872.123
69.04000 42958.156
69.08000 50545.504
69.12000 53604.699
69.16000 57076.266
69.20000 55366.020
69.24000 43956.012
69.28000 32838.855
69.32000 27304.309
69.36000 25285.699
69.40000 20625.336
69.44000 12079.003
69.48000 5117.338
69.52000 2488.514
69.56000 1577.855
69.60000 1206.952
69.64000 1042.443
69.68000 912.596
69.72000 805.930
69.76000 736.917
69.80000 722.977
69.84000 637.353
69.88000 592.416
69.92000 596.572
69.96000 578.613
70.00000 533.956