File: XRD/XRD/09-10-2025 Dep 8/XY Data/BTO_Mapping_Theta2Theta_09-10-2025_001_03_20-000_0-000.xy
20.00000 525.501
20.04000 493.999
20.08000 490.731
20.12000 491.760
20.16000 496.015
20.20000 492.766
20.24000 497.533
20.28000 487.623
20.32000 492.885
20.36000 487.605
20.40000 456.410
20.44000 487.925
20.48000 467.250
20.52000 489.903
20.56000 472.121
20.60000 473.192
20.64000 479.932
20.68000 469.686
20.72000 479.243
20.76000 470.978
20.80000 466.309
20.84000 463.808
20.88000 458.263
20.92000 450.365
20.96000 469.707
21.00000 467.485
21.04000 478.607
21.08000 478.218
21.12000 467.956
21.16000 466.806
21.20000 475.191
21.24000 472.252
21.28000 482.247
21.32000 478.358
21.36000 471.190
21.40000 478.230
21.44000 470.708
21.48000 483.482
21.52000 481.008
21.56000 501.134
21.60000 492.906
21.64000 475.096
21.68000 498.394
21.72000 496.922
21.76000 493.353
21.80000 495.472
21.84000 508.310
21.88000 546.435
21.92000 538.056
21.96000 536.203
22.00000 559.986
22.04000 570.676
22.08000 608.542
22.12000 582.589
22.16000 588.425
22.20000 570.256
22.24000 578.481
22.28000 575.662
22.32000 547.691
22.36000 522.449
22.40000 516.305
22.44000 521.845
22.48000 502.253
22.52000 505.686
22.56000 476.738
22.60000 465.223
22.64000 453.150
22.68000 448.056
22.72000 434.314
22.76000 459.718
22.80000 459.361
22.84000 446.623
22.88000 433.834
22.92000 426.412
22.96000 450.025
23.00000 441.068
23.04000 448.806
23.08000 432.667
23.12000 430.364
23.16000 460.662
23.20000 442.681
23.24000 440.195
23.28000 442.185
23.32000 432.741
23.36000 437.034
23.40000 438.345
23.44000 430.093
23.48000 434.449
23.52000 428.436
23.56000 427.933
23.60000 427.335
23.64000 424.609
23.68000 433.803
23.72000 429.192
23.76000 429.156
23.80000 417.373
23.84000 418.864
23.88000 416.410
23.92000 424.671
23.96000 440.218
24.00000 417.070
24.04000 431.247
24.08000 449.488
24.12000 430.459
24.16000 429.141
24.20000 439.402
24.24000 422.608
24.28000 430.159
24.32000 428.005
24.36000 402.691
24.40000 419.048
24.44000 425.909
24.48000 423.680
24.52000 415.511
24.56000 410.814
24.60000 410.110
24.64000 399.495
24.68000 408.101
24.72000 403.637
24.76000 413.046
24.80000 411.554
24.84000 421.969
24.88000 421.585
24.92000 423.243
24.96000 411.744
25.00000 410.717
25.04000 404.435
25.08000 402.191
25.12000 422.294
25.16000 399.115
25.20000 421.325
25.24000 401.771
25.28000 402.036
25.32000 390.829
25.36000 402.054
25.40000 415.283
25.44000 396.840
25.48000 403.532
25.52000 399.952
25.56000 400.219
25.60000 389.749
25.64000 403.482
25.68000 398.600
25.72000 408.397
25.76000 390.977
25.80000 395.575
25.84000 412.195
25.88000 398.244
25.92000 398.362
25.96000 390.784
26.00000 394.568
26.04000 404.380
26.08000 396.192
26.12000 402.322
26.16000 391.810
26.20000 391.257
26.24000 391.740
26.28000 397.654
26.32000 402.083
26.36000 396.396
26.40000 389.686
26.44000 380.412
26.48000 393.450
26.52000 382.094
26.56000 398.143
26.60000 396.583
26.64000 379.582
26.68000 392.135
26.72000 375.627
26.76000 353.999
26.80000 375.390
26.84000 382.163
26.88000 376.637
26.92000 379.695
26.96000 373.122
27.00000 376.876
27.04000 376.054
27.08000 374.749
27.12000 373.825
27.16000 395.467
27.20000 370.673
27.24000 385.026
27.28000 392.570
27.32000 372.044
27.36000 378.854
27.40000 370.366
27.44000 372.411
27.48000 369.912
27.52000 373.992
27.56000 369.871
27.60000 387.865
27.64000 371.021
27.68000 355.844
27.72000 373.391
27.76000 385.007
27.80000 368.133
27.84000 379.551
27.88000 357.664
27.92000 361.787
27.96000 374.401
28.00000 360.693
28.04000 367.012
28.08000 359.106
28.12000 367.135
28.16000 368.504
28.20000 368.735
28.24000 368.766
28.28000 373.188
28.32000 376.512
28.36000 385.270
28.40000 376.718
28.44000 374.066
28.48000 364.919
28.52000 365.587
28.56000 373.463
28.60000 375.500
28.64000 362.644
28.68000 355.253
28.72000 345.849
28.76000 374.345
28.80000 361.795
28.84000 375.089
28.88000 374.214
28.92000 344.751
28.96000 353.661
29.00000 369.341
29.04000 356.688
29.08000 373.712
29.12000 358.210
29.16000 377.291
29.20000 358.820
29.24000 345.545
29.28000 375.394
29.32000 364.529
29.36000 360.175
29.40000 366.903
29.44000 368.609
29.48000 372.024
29.52000 369.356
29.56000 359.028
29.60000 362.187
29.64000 368.252
29.68000 370.805
29.72000 368.231
29.76000 358.915
29.80000 377.731
29.84000 380.125
29.88000 401.023
29.92000 410.997
29.96000 424.913
30.00000 424.631
30.04000 432.788
30.08000 455.409
30.12000 437.294
30.16000 443.467
30.20000 425.380
30.24000 411.282
30.28000 416.964
30.32000 412.295
30.36000 407.092
30.40000 398.309
30.44000 398.084
30.48000 402.364
30.52000 381.866
30.56000 384.434
30.60000 390.782
30.64000 391.027
30.68000 396.355
30.72000 403.915
30.76000 404.388
30.80000 410.079
30.84000 432.910
30.88000 430.624
30.92000 431.430
30.96000 462.746
31.00000 494.140
31.04000 531.547
31.08000 588.716
31.12000 685.472
31.16000 840.942
31.20000 1071.750
31.24000 1331.523
31.28000 1761.773
31.32000 2177.977
31.36000 2471.382
31.40000 2708.090
31.44000 2656.119
31.48000 2489.197
31.52000 2199.242
31.56000 1799.198
31.60000 1449.738
31.64000 1138.683
31.68000 922.808
31.72000 728.033
31.76000 662.880
31.80000 559.531
31.84000 492.466
31.88000 454.635
31.92000 461.042
31.96000 402.739
32.00000 402.913
32.04000 364.809
32.08000 365.986
32.12000 359.557
32.16000 359.916
32.20000 352.040
32.24000 340.859
32.28000 343.012
32.32000 346.872
32.36000 339.527
32.40000 334.023
32.44000 334.693
32.48000 350.441
32.52000 331.006
32.56000 337.311
32.60000 329.621
32.64000 328.962
32.68000 312.972
32.72000 315.356
32.76000 324.320
32.80000 312.690
32.84000 317.007
32.88000 306.044
32.92000 307.882
32.96000 312.533
33.00000 314.672
33.04000 290.439
33.08000 319.410
33.12000 321.012
33.16000 310.142
33.20000 292.081
33.24000 301.610
33.28000 311.082
33.32000 304.781
33.36000 293.145
33.40000 295.533
33.44000 300.780
33.48000 305.969
33.52000 299.730
33.56000 287.600
33.60000 292.881
33.64000 301.157
33.68000 287.568
33.72000 295.350
33.76000 302.223
33.80000 292.148
33.84000 290.846
33.88000 304.556
33.92000 288.369
33.96000 285.840
34.00000 294.820
34.04000 297.990
34.08000 278.894
34.12000 295.581
34.16000 283.329
34.20000 296.615
34.24000 287.397
34.28000 283.625
34.32000 280.835
34.36000 293.881
34.40000 284.334
34.44000 283.653
34.48000 291.847
34.52000 283.126
34.56000 299.783
34.60000 275.930
34.64000 287.088
34.68000 290.713
34.72000 286.411
34.76000 288.086
34.80000 286.236
34.84000 269.605
34.88000 277.344
34.92000 275.808
34.96000 302.115
35.00000 274.904
35.04000 287.582
35.08000 278.858
35.12000 266.234
35.16000 282.977
35.20000 267.176
35.24000 281.928
35.28000 274.630
35.32000 265.214
35.36000 262.669
35.40000 282.074
35.44000 280.367
35.48000 274.474
35.52000 266.103
35.56000 264.420
35.60000 270.905
35.64000 257.881
35.68000 256.494
35.72000 258.466
35.76000 276.223
35.80000 256.075
35.84000 271.986
35.88000 259.786
35.92000 280.489
35.96000 259.417
36.00000 269.943
36.04000 263.893
36.08000 270.656
36.12000 260.828
36.16000 259.888
36.20000 258.142
36.24000 267.032
36.28000 266.053
36.32000 264.176
36.36000 255.844
36.40000 267.239
36.44000 271.017
36.48000 261.500
36.52000 273.759
36.56000 277.162
36.60000 265.245
36.64000 262.221
36.68000 262.278
36.72000 263.597
36.76000 258.123
36.80000 260.974
36.84000 278.271
36.88000 254.426
36.92000 271.686
36.96000 285.802
37.00000 269.609
37.04000 264.292
37.08000 287.009
37.12000 275.236
37.16000 286.457
37.20000 283.073
37.24000 266.219
37.28000 256.301
37.32000 252.861
37.36000 270.561
37.40000 265.021
37.44000 273.060
37.48000 259.638
37.52000 251.894
37.56000 243.894
37.60000 255.292
37.64000 262.930
37.68000 257.590
37.72000 250.603
37.76000 250.114
37.80000 247.480
37.84000 254.697
37.88000 277.868
37.92000 253.497
37.96000 248.340
38.00000 264.148
38.04000 259.161
38.08000 251.843
38.12000 267.553
38.16000 265.245
38.20000 255.815
38.24000 286.925
38.28000 278.919
38.32000 296.402
38.36000 297.691
38.40000 301.468
38.44000 314.996
38.48000 364.931
38.52000 427.075
38.56000 516.499
38.60000 625.922
38.64000 780.321
38.68000 890.952
38.72000 946.883
38.76000 1029.726
38.80000 968.061
38.84000 876.464
38.88000 777.136
38.92000 620.845
38.96000 535.439
39.00000 433.198
39.04000 359.076
39.08000 312.739
39.12000 297.441
39.16000 277.328
39.20000 259.949
39.24000 252.335
39.28000 248.804
39.32000 269.229
39.36000 236.726
39.40000 254.579
39.44000 231.446
39.48000 253.944
39.52000 232.418
39.56000 236.675
39.60000 233.182
39.64000 250.308
39.68000 226.067
39.72000 243.644
39.76000 230.999
39.80000 229.654
39.84000 232.853
39.88000 235.637
39.92000 236.619
39.96000 221.027
40.00000 215.783
40.04000 242.809
40.08000 241.206
40.12000 229.643
40.16000 230.452
40.20000 227.750
40.24000 228.767
40.28000 222.586
40.32000 224.510
40.36000 221.775
40.40000 222.254
40.44000 231.454
40.48000 227.847
40.52000 217.670
40.56000 221.355
40.60000 211.746
40.64000 216.999
40.68000 220.434
40.72000 223.753
40.76000 219.376
40.80000 207.872
40.84000 221.664
40.88000 223.666
40.92000 223.349
40.96000 205.951
41.00000 218.042
41.04000 219.679
41.08000 214.769
41.12000 217.016
41.16000 206.368
41.20000 213.148
41.24000 216.442
41.28000 220.788
41.32000 214.365
41.36000 213.194
41.40000 217.611
41.44000 204.096
41.48000 211.159
41.52000 208.876
41.56000 203.681
41.60000 210.551
41.64000 210.718
41.68000 214.440
41.72000 206.069
41.76000 208.392
41.80000 219.744
41.84000 210.978
41.88000 208.316
41.92000 203.925
41.96000 195.647
42.00000 204.028
42.04000 209.278
42.08000 220.602
42.12000 204.630
42.16000 200.436
42.20000 210.235
42.24000 218.913
42.28000 208.571
42.32000 208.274
42.36000 209.602
42.40000 209.781
42.44000 212.493
42.48000 200.684
42.52000 208.904
42.56000 212.173
42.60000 202.446
42.64000 198.833
42.68000 207.082
42.72000 203.889
42.76000 210.488
42.80000 207.269
42.84000 189.892
42.88000 202.904
42.92000 207.223
42.96000 208.562
43.00000 202.593
43.04000 199.858
43.08000 200.360
43.12000 211.594
43.16000 179.804
43.20000 201.077
43.24000 204.059
43.28000 192.256
43.32000 197.663
43.36000 200.388
43.40000 179.748
43.44000 196.183
43.48000 193.615
43.52000 203.334
43.56000 205.456
43.60000 197.220
43.64000 202.718
43.68000 207.480
43.72000 197.138
43.76000 192.512
43.80000 205.404
43.84000 193.483
43.88000 201.607
43.92000 185.437
43.96000 182.078
44.00000 199.267
44.04000 184.384
44.08000 202.256
44.12000 187.556
44.16000 188.568
44.20000 191.130
44.24000 206.901
44.28000 196.543
44.32000 201.616
44.36000 201.991
44.40000 192.609
44.44000 208.524
44.48000 198.177
44.52000 198.132
44.56000 195.091
44.60000 215.781
44.64000 215.051
44.68000 203.989
44.72000 203.266
44.76000 216.587
44.80000 208.971
44.84000 221.684
44.88000 219.174
44.92000 231.622
44.96000 243.545
45.00000 244.757
45.04000 267.634
45.08000 263.661
45.12000 273.836
45.16000 275.753
45.20000 280.595
45.24000 283.303
45.28000 273.996
45.32000 275.249
45.36000 268.240
45.40000 267.406
45.44000 274.545
45.48000 263.612
45.52000 241.706
45.56000 243.201
45.60000 240.237
45.64000 235.916
45.68000 224.157
45.72000 215.781
45.76000 225.631
45.80000 205.102
45.84000 215.720
45.88000 192.157
45.92000 196.154
45.96000 206.296
46.00000 187.216
46.04000 198.110
46.08000 195.117
46.12000 183.511
46.16000 182.922
46.20000 192.719
46.24000 185.594
46.28000 189.266
46.32000 188.915
46.36000 173.308
46.40000 189.575
46.44000 181.221
46.48000 183.885
46.52000 176.205
46.56000 186.284
46.60000 190.964
46.64000 173.799
46.68000 178.335
46.72000 169.970
46.76000 182.407
46.80000 178.399
46.84000 171.385
46.88000 166.749
46.92000 181.082
46.96000 170.568
47.00000 175.771
47.04000 164.716
47.08000 175.006
47.12000 178.465
47.16000 165.652
47.20000 172.808
47.24000 154.674
47.28000 166.337
47.32000 170.923
47.36000 171.108
47.40000 175.139
47.44000 161.359
47.48000 168.608
47.52000 157.651
47.56000 159.275
47.60000 169.261
47.64000 161.897
47.68000 164.219
47.72000 169.598
47.76000 157.400
47.80000 163.737
47.84000 155.620
47.88000 168.216
47.92000 167.226
47.96000 153.390
48.00000 164.252
48.04000 161.055
48.08000 161.694
48.12000 162.082
48.16000 176.286
48.20000 161.726
48.24000 159.468
48.28000 160.230
48.32000 156.853
48.36000 171.026
48.40000 154.741
48.44000 150.870
48.48000 158.139
48.52000 160.652
48.56000 167.657
48.60000 157.069
48.64000 156.571
48.68000 167.467
48.72000 166.401
48.76000 163.759
48.80000 149.217
48.84000 152.498
48.88000 162.541
48.92000 157.991
48.96000 161.091
49.00000 171.764
49.04000 161.548
49.08000 158.200
49.12000 158.350
49.16000 157.313
49.20000 159.493
49.24000 162.320
49.28000 164.579
49.32000 149.388
49.36000 150.878
49.40000 168.265
49.44000 162.730
49.48000 159.437
49.52000 154.399
49.56000 157.394
49.60000 150.934
49.64000 142.769
49.68000 150.513
49.72000 159.928
49.76000 141.510
49.80000 146.841
49.84000 153.236
49.88000 153.026
49.92000 152.134
49.96000 146.103
50.00000 151.618
50.04000 158.987
50.08000 155.605
50.12000 138.018
50.16000 153.977
50.20000 163.707
50.24000 150.310
50.28000 158.006
50.32000 150.568
50.36000 161.422
50.40000 163.664
50.44000 165.878
50.48000 164.295
50.52000 168.270
50.56000 176.142
50.60000 193.616
50.64000 213.408
50.68000 218.982
50.72000 237.001
50.76000 243.760
50.80000 232.396
50.84000 232.227
50.88000 207.663
50.92000 213.056
50.96000 200.735
51.00000 193.406
51.04000 180.908
51.08000 184.142
51.12000 167.536
51.16000 166.590
51.20000 161.610
51.24000 167.683
51.28000 160.725
51.32000 154.800
51.36000 162.117
51.40000 153.728
51.44000 152.824
51.48000 161.118
51.52000 149.197
51.56000 154.746
51.60000 153.767
51.64000 161.158
51.68000 147.120
51.72000 141.288
51.76000 141.889
51.80000 144.602
51.84000 141.775
51.88000 151.434
51.92000 135.570
51.96000 150.629
52.00000 147.078
52.04000 136.450
52.08000 140.307
52.12000 148.448
52.16000 140.729
52.20000 140.388
52.24000 142.979
52.28000 140.690
52.32000 147.804
52.36000 136.920
52.40000 142.408
52.44000 149.449
52.48000 141.110
52.52000 136.652
52.56000 127.672
52.60000 135.575
52.64000 141.657
52.68000 136.965
52.72000 141.942
52.76000 132.137
52.80000 136.733
52.84000 142.733
52.88000 129.481
52.92000 138.548
52.96000 124.626
53.00000 130.956
53.04000 132.723
53.08000 133.729
53.12000 136.282
53.16000 139.543
53.20000 145.585
53.24000 146.517
53.28000 150.030
53.32000 148.936
53.36000 149.367
53.40000 155.834
53.44000 149.153
53.48000 157.441
53.52000 149.800
53.56000 141.570
53.60000 133.857
53.64000 147.237
53.68000 148.201
53.72000 138.844
53.76000 146.083
53.80000 143.315
53.84000 139.559
53.88000 138.305
53.92000 150.220
53.96000 143.205
54.00000 147.011
54.04000 143.763
54.08000 138.286
54.12000 142.843
54.16000 142.414
54.20000 134.457
54.24000 131.284
54.28000 140.732
54.32000 141.365
54.36000 143.149
54.40000 143.770
54.44000 137.710
54.48000 143.143
54.52000 138.036
54.56000 145.285
54.60000 135.046
54.64000 132.382
54.68000 137.113
54.72000 134.661
54.76000 138.072
54.80000 139.219
54.84000 140.355
54.88000 141.601
54.92000 139.088
54.96000 140.993
55.00000 143.997
55.04000 139.851
55.08000 146.471
55.12000 144.154
55.16000 142.662
55.20000 143.184
55.24000 148.983
55.28000 148.754
55.32000 141.497
55.36000 151.514
55.40000 150.386
55.44000 157.596
55.48000 156.003
55.52000 167.274
55.56000 177.421
55.60000 179.752
55.64000 191.393
55.68000 211.900
55.72000 227.191
55.76000 272.506
55.80000 313.807
55.84000 371.460
55.88000 429.748
55.92000 491.218
55.96000 513.329
56.00000 546.220
56.04000 553.272
56.08000 561.960
56.12000 501.968
56.16000 457.520
56.20000 415.681
56.24000 374.970
56.28000 335.354
56.32000 287.866
56.36000 253.116
56.40000 213.568
56.44000 197.592
56.48000 189.209
56.52000 173.456
56.56000 166.852
56.60000 158.487
56.64000 166.094
56.68000 163.355
56.72000 147.919
56.76000 146.018
56.80000 149.618
56.84000 133.691
56.88000 133.572
56.92000 137.266
56.96000 138.388
57.00000 139.464
57.04000 132.317
57.08000 133.773
57.12000 123.369
57.16000 129.396
57.20000 129.004
57.24000 126.338
57.28000 127.534
57.32000 137.608
57.36000 120.235
57.40000 128.695
57.44000 123.232
57.48000 129.560
57.52000 130.172
57.56000 121.750
57.60000 117.433
57.64000 125.023
57.68000 122.635
57.72000 123.348
57.76000 129.780
57.80000 135.249
57.84000 129.334
57.88000 126.406
57.92000 136.518
57.96000 124.384
58.00000 126.546
58.04000 122.819
58.08000 124.684
58.12000 126.362
58.16000 133.527
58.20000 134.921
58.24000 132.561
58.28000 119.652
58.32000 119.349
58.36000 122.801
58.40000 119.121
58.44000 122.840
58.48000 125.866
58.52000 120.513
58.56000 127.737
58.60000 120.007
58.64000 115.552
58.68000 130.767
58.72000 118.561
58.76000 114.964
58.80000 126.043
58.84000 118.602
58.88000 126.435
58.92000 119.376
58.96000 117.470
59.00000 126.966
59.04000 125.128
59.08000 126.606
59.12000 121.194
59.16000 111.677
59.20000 115.022
59.24000 116.981
59.28000 129.420
59.32000 112.710
59.36000 111.806
59.40000 120.023
59.44000 120.233
59.48000 133.537
59.52000 117.399
59.56000 110.763
59.60000 120.026
59.64000 123.755
59.68000 120.464
59.72000 124.482
59.76000 121.877
59.80000 116.935
59.84000 116.732
59.88000 114.330
59.92000 124.513
59.96000 121.494
60.00000 120.284
60.04000 103.026
60.08000 114.159
60.12000 122.551
60.16000 110.169
60.20000 119.629
60.24000 120.054
60.28000 128.385
60.32000 115.323
60.36000 116.834
60.40000 112.021
60.44000 130.033
60.48000 123.947
60.52000 118.687
60.56000 119.084
60.60000 120.696
60.64000 121.566
60.68000 119.696
60.72000 117.627
60.76000 124.122
60.80000 119.933
60.84000 123.246
60.88000 124.541
60.92000 121.475
60.96000 128.596
61.00000 120.570
61.04000 127.983
61.08000 117.967
61.12000 120.789
61.16000 117.715
61.20000 118.858
61.24000 124.036
61.28000 130.774
61.32000 125.271
61.36000 120.224
61.40000 130.306
61.44000 132.181
61.48000 136.337
61.52000 164.035
61.56000 213.662
61.60000 281.865
61.64000 309.962
61.68000 328.674
61.72000 327.405
61.76000 294.588
61.80000 240.292
61.84000 177.089
61.88000 149.078
61.92000 139.060
61.96000 131.732
62.00000 136.680
62.04000 124.524
62.08000 128.757
62.12000 134.170
62.16000 135.198
62.20000 121.278
62.24000 134.777
62.28000 138.019
62.32000 128.202
62.36000 134.813
62.40000 127.165
62.44000 123.559
62.48000 133.091
62.52000 132.127
62.56000 139.865
62.60000 137.641
62.64000 131.225
62.68000 138.100
62.72000 126.191
62.76000 125.422
62.80000 127.056
62.84000 130.650
62.88000 145.324
62.92000 145.103
62.96000 138.860
63.00000 133.970
63.04000 141.813
63.08000 132.591
63.12000 137.484
63.16000 131.252
63.20000 137.592
63.24000 135.105
63.28000 136.001
63.32000 136.690
63.36000 129.383
63.40000 136.018
63.44000 144.245
63.48000 135.597
63.52000 134.726
63.56000 149.616
63.60000 138.804
63.64000 131.444
63.68000 147.427
63.72000 141.737
63.76000 150.484
63.80000 146.878
63.84000 144.711
63.88000 148.026
63.92000 142.677
63.96000 149.233
64.00000 146.937
64.04000 153.871
64.08000 154.325
64.12000 156.535
64.16000 153.624
64.20000 148.165
64.24000 156.327
64.28000 159.192
64.32000 158.470
64.36000 157.162
64.40000 166.188
64.44000 165.087
64.48000 161.358
64.52000 154.271
64.56000 166.685
64.60000 165.049
64.64000 174.524
64.68000 179.231
64.72000 173.760
64.76000 183.472
64.80000 174.286
64.84000 181.054
64.88000 177.473
64.92000 181.410
64.96000 184.242
65.00000 184.699
65.04000 198.789
65.08000 199.981
65.12000 202.920
65.16000 225.348
65.20000 235.705
65.24000 227.768
65.28000 242.638
65.32000 257.111
65.36000 270.919
65.40000 305.698
65.44000 335.683
65.48000 369.359
65.52000 398.262
65.56000 427.866
65.60000 481.143
65.64000 572.765
65.68000 780.196
65.72000 1171.904
65.76000 1715.828
65.80000 2092.761
65.84000 2228.606
65.88000 2226.434
65.92000 2100.059
65.96000 1641.048
66.00000 1048.612
66.04000 669.876
66.08000 522.263
66.12000 423.563
66.16000 411.748
66.20000 415.983
66.24000 434.307
66.28000 501.109
66.32000 597.851
66.36000 652.862
66.40000 684.156
66.44000 678.495
66.48000 656.151
66.52000 557.319
66.56000 456.290
66.60000 411.645
66.64000 388.663
66.68000 370.921
66.72000 375.351
66.76000 362.828
66.80000 368.553
66.84000 363.647
66.88000 393.800
66.92000 386.935
66.96000 388.316
67.00000 395.678
67.04000 399.681
67.08000 401.448
67.12000 409.828
67.16000 419.507
67.20000 397.209
67.24000 419.322
67.28000 448.543
67.32000 429.811
67.36000 429.325
67.40000 433.604
67.44000 429.467
67.48000 431.423
67.52000 465.225
67.56000 469.226
67.60000 464.956
67.64000 461.540
67.68000 474.485
67.72000 478.932
67.76000 498.154
67.80000 494.085
67.84000 493.479
67.88000 512.130
67.92000 518.403
67.96000 524.295
68.00000 537.476
68.04000 539.633
68.08000 555.988
68.12000 560.137
68.16000 581.721
68.20000 581.316
68.24000 595.289
68.28000 623.278
68.32000 616.693
68.36000 664.535
68.40000 667.819
68.44000 737.324
68.48000 741.867
68.52000 789.137
68.56000 859.787
68.60000 950.243
68.64000 1142.286
68.68000 1296.948
68.72000 1535.556
68.76000 1715.309
68.80000 1973.569
68.84000 2245.154
68.88000 2904.236
68.92000 5161.134
68.96000 13022.816
69.00000 28688.096
69.04000 43216.582
69.08000 49903.156
69.12000 52740.406
69.16000 55995.727
69.20000 53885.602
69.24000 42133.145
69.28000 31381.266
69.32000 26496.189
69.36000 24667.229
69.40000 19807.539
69.44000 11174.843
69.48000 4802.594
69.52000 2318.535
69.56000 1491.612
69.60000 1181.648
69.64000 1025.877
69.68000 909.129
69.72000 787.750
69.76000 717.123
69.80000 675.850
69.84000 632.057
69.88000 598.497
69.92000 550.617
69.96000 541.367
70.00000 530.808