File: XRD/XRD/07-10-2025 Dep 6/XY Data/BTO_Mapping_Theta2Theta_07-10-2025_001_05_40-000_0-000.xy
20.00000 480.587
20.04000 503.014
20.08000 477.790
20.12000 479.063
20.16000 488.889
20.20000 474.951
20.24000 478.967
20.28000 479.029
20.32000 455.364
20.36000 469.124
20.40000 476.192
20.44000 479.634
20.48000 464.041
20.52000 448.019
20.56000 472.085
20.60000 462.841
20.64000 457.005
20.68000 468.879
20.72000 482.178
20.76000 457.885
20.80000 452.313
20.84000 469.576
20.88000 466.604
20.92000 449.928
20.96000 465.458
21.00000 465.443
21.04000 470.854
21.08000 459.853
21.12000 460.319
21.16000 451.994
21.20000 454.822
21.24000 456.548
21.28000 462.200
21.32000 469.316
21.36000 420.141
21.40000 470.079
21.44000 463.974
21.48000 462.036
21.52000 479.184
21.56000 458.285
21.60000 456.515
21.64000 466.147
21.68000 462.485
21.72000 455.687
21.76000 460.978
21.80000 466.454
21.84000 464.956
21.88000 475.959
21.92000 487.368
21.96000 503.414
22.00000 476.916
22.04000 474.146
22.08000 481.056
22.12000 480.078
22.16000 468.675
22.20000 478.884
22.24000 467.434
22.28000 466.912
22.32000 463.798
22.36000 487.826
22.40000 466.186
22.44000 467.614
22.48000 478.664
22.52000 452.202
22.56000 439.713
22.60000 452.170
22.64000 446.697
22.68000 416.349
22.72000 437.412
22.76000 447.631
22.80000 449.098
22.84000 457.473
22.88000 447.055
22.92000 437.061
22.96000 452.579
23.00000 427.308
23.04000 447.898
23.08000 433.510
23.12000 404.169
23.16000 418.239
23.20000 421.818
23.24000 418.168
23.28000 430.859
23.32000 447.052
23.36000 435.723
23.40000 442.375
23.44000 417.051
23.48000 436.289
23.52000 436.737
23.56000 450.999
23.60000 437.726
23.64000 430.676
23.68000 446.363
23.72000 455.323
23.76000 463.355
23.80000 466.616
23.84000 480.564
23.88000 486.025
23.92000 476.909
23.96000 511.934
24.00000 501.511
24.04000 495.984
24.08000 491.588
24.12000 472.594
24.16000 465.215
24.20000 453.369
24.24000 430.726
24.28000 455.450
24.32000 428.454
24.36000 423.060
24.40000 428.471
24.44000 433.022
24.48000 419.686
24.52000 411.219
24.56000 421.196
24.60000 421.549
24.64000 417.965
24.68000 415.833
24.72000 409.461
24.76000 400.247
24.80000 412.792
24.84000 418.560
24.88000 410.120
24.92000 417.511
24.96000 419.669
25.00000 417.691
25.04000 397.239
25.08000 401.309
25.12000 401.389
25.16000 413.517
25.20000 392.213
25.24000 396.307
25.28000 383.391
25.32000 419.045
25.36000 408.237
25.40000 396.745
25.44000 408.807
25.48000 406.593
25.52000 399.140
25.56000 396.965
25.60000 391.658
25.64000 381.522
25.68000 384.279
25.72000 392.812
25.76000 399.599
25.80000 390.415
25.84000 399.127
25.88000 395.495
25.92000 397.046
25.96000 388.239
26.00000 377.144
26.04000 405.079
26.08000 379.027
26.12000 384.208
26.16000 395.555
26.20000 390.358
26.24000 396.003
26.28000 395.103
26.32000 401.064
26.36000 389.163
26.40000 402.996
26.44000 391.634
26.48000 384.810
26.52000 382.435
26.56000 402.793
26.60000 387.352
26.64000 368.552
26.68000 379.997
26.72000 372.139
26.76000 379.118
26.80000 382.537
26.84000 377.309
26.88000 380.273
26.92000 389.729
26.96000 368.638
27.00000 386.108
27.04000 380.792
27.08000 375.555
27.12000 374.015
27.16000 364.302
27.20000 387.915
27.24000 392.289
27.28000 382.333
27.32000 374.432
27.36000 366.678
27.40000 366.797
27.44000 367.719
27.48000 372.489
27.52000 381.165
27.56000 392.980
27.60000 382.110
27.64000 380.878
27.68000 391.490
27.72000 372.511
27.76000 366.038
27.80000 388.951
27.84000 379.086
27.88000 363.616
27.92000 362.640
27.96000 377.780
28.00000 357.219
28.04000 379.472
28.08000 371.501
28.12000 357.272
28.16000 372.181
28.20000 361.971
28.24000 371.187
28.28000 374.887
28.32000 379.761
28.36000 373.600
28.40000 364.912
28.44000 367.072
28.48000 362.249
28.52000 369.825
28.56000 364.008
28.60000 372.838
28.64000 375.980
28.68000 363.798
28.72000 360.170
28.76000 350.891
28.80000 382.412
28.84000 355.012
28.88000 375.983
28.92000 369.510
28.96000 380.164
29.00000 366.712
29.04000 385.756
29.08000 378.243
29.12000 354.787
29.16000 375.168
29.20000 375.516
29.24000 353.399
29.28000 361.717
29.32000 363.460
29.36000 360.059
29.40000 360.743
29.44000 369.068
29.48000 372.435
29.52000 366.011
29.56000 373.701
29.60000 359.819
29.64000 366.077
29.68000 360.254
29.72000 368.615
29.76000 367.477
29.80000 364.548
29.84000 360.233
29.88000 376.459
29.92000 368.514
29.96000 361.387
30.00000 372.641
30.04000 379.143
30.08000 386.682
30.12000 357.112
30.16000 368.865
30.20000 374.964
30.24000 344.958
30.28000 363.104
30.32000 353.290
30.36000 365.903
30.40000 354.932
30.44000 349.334
30.48000 355.328
30.52000 368.621
30.56000 366.561
30.60000 391.995
30.64000 376.422
30.68000 382.552
30.72000 383.621
30.76000 384.664
30.80000 380.574
30.84000 378.749
30.88000 395.107
30.92000 390.374
30.96000 426.028
31.00000 431.465
31.04000 473.340
31.08000 505.628
31.12000 553.997
31.16000 583.376
31.20000 658.291
31.24000 729.622
31.28000 762.735
31.32000 825.212
31.36000 831.813
31.40000 857.776
31.44000 818.034
31.48000 777.163
31.52000 726.268
31.56000 655.825
31.60000 601.258
31.64000 550.360
31.68000 509.483
31.72000 466.337
31.76000 443.734
31.80000 433.761
31.84000 419.779
31.88000 401.384
31.92000 387.192
31.96000 380.144
32.00000 361.524
32.04000 358.383
32.08000 375.795
32.12000 369.939
32.16000 366.487
32.20000 367.714
32.24000 340.219
32.28000 354.661
32.32000 344.571
32.36000 342.076
32.40000 337.742
32.44000 339.487
32.48000 332.055
32.52000 327.384
32.56000 337.585
32.60000 322.092
32.64000 315.782
32.68000 318.833
32.72000 306.095
32.76000 312.656
32.80000 333.977
32.84000 387.242
32.88000 451.064
32.92000 520.019
32.96000 556.852
33.00000 567.123
33.04000 536.316
33.08000 469.550
33.12000 388.040
33.16000 348.354
33.20000 304.425
33.24000 310.338
33.28000 299.620
33.32000 284.610
33.36000 295.453
33.40000 298.124
33.44000 291.638
33.48000 283.789
33.52000 296.052
33.56000 294.184
33.60000 278.151
33.64000 293.589
33.68000 306.400
33.72000 292.911
33.76000 315.779
33.80000 299.323
33.84000 286.621
33.88000 297.030
33.92000 309.071
33.96000 300.112
34.00000 305.336
34.04000 306.500
34.08000 298.341
34.12000 299.620
34.16000 298.073
34.20000 295.533
34.24000 315.581
34.28000 308.920
34.32000 289.008
34.36000 306.427
34.40000 302.974
34.44000 323.782
34.48000 303.756
34.52000 291.111
34.56000 293.518
34.60000 288.172
34.64000 293.031
34.68000 298.487
34.72000 290.859
34.76000 275.757
34.80000 278.589
34.84000 282.765
34.88000 285.201
34.92000 287.165
34.96000 285.378
35.00000 278.590
35.04000 267.066
35.08000 258.377
35.12000 256.795
35.16000 272.929
35.20000 269.728
35.24000 265.968
35.28000 254.420
35.32000 271.920
35.36000 265.838
35.40000 268.412
35.44000 264.159
35.48000 252.398
35.52000 273.590
35.56000 255.124
35.60000 270.711
35.64000 264.917
35.68000 265.595
35.72000 264.933
35.76000 262.629
35.80000 255.453
35.84000 264.582
35.88000 258.787
35.92000 263.948
35.96000 256.100
36.00000 254.389
36.04000 264.063
36.08000 264.444
36.12000 261.922
36.16000 253.600
36.20000 255.782
36.24000 259.667
36.28000 265.984
36.32000 256.767
36.36000 263.715
36.40000 264.269
36.44000 256.919
36.48000 259.047
36.52000 269.987
36.56000 256.715
36.60000 256.962
36.64000 256.855
36.68000 254.716
36.72000 249.619
36.76000 269.009
36.80000 250.099
36.84000 260.064
36.88000 258.822
36.92000 258.994
36.96000 261.395
37.00000 270.342
37.04000 267.972
37.08000 255.162
37.12000 245.779
37.16000 244.699
37.20000 254.947
37.24000 255.525
37.28000 250.332
37.32000 244.632
37.36000 255.403
37.40000 238.282
37.44000 254.680
37.48000 257.282
37.52000 254.359
37.56000 264.723
37.60000 237.318
37.64000 237.429
37.68000 248.199
37.72000 254.841
37.76000 249.782
37.80000 247.531
37.84000 257.385
37.88000 254.215
37.92000 255.462
37.96000 250.190
38.00000 249.570
38.04000 249.616
38.08000 250.744
38.12000 251.155
38.16000 257.014
38.20000 257.118
38.24000 263.527
38.28000 266.404
38.32000 281.009
38.36000 274.645
38.40000 300.738
38.44000 327.385
38.48000 346.479
38.52000 379.948
38.56000 407.035
38.60000 449.498
38.64000 468.358
38.68000 482.008
38.72000 482.370
38.76000 461.932
38.80000 455.833
38.84000 387.560
38.88000 347.053
38.92000 320.846
38.96000 296.695
39.00000 286.133
39.04000 263.897
39.08000 260.290
39.12000 268.773
39.16000 247.318
39.20000 241.254
39.24000 246.124
39.28000 245.425
39.32000 238.741
39.36000 235.617
39.40000 243.718
39.44000 245.471
39.48000 224.213
39.52000 233.512
39.56000 244.882
39.60000 240.871
39.64000 215.853
39.68000 231.530
39.72000 226.283
39.76000 219.703
39.80000 226.318
39.84000 229.203
39.88000 229.218
39.92000 225.772
39.96000 226.589
40.00000 227.973
40.04000 207.340
40.08000 221.558
40.12000 212.090
40.16000 223.938
40.20000 226.583
40.24000 224.917
40.28000 216.102
40.32000 217.306
40.36000 222.913
40.40000 223.729
40.44000 219.465
40.48000 224.670
40.52000 216.317
40.56000 220.864
40.60000 210.875
40.64000 216.093
40.68000 228.905
40.72000 214.761
40.76000 211.759
40.80000 219.927
40.84000 212.994
40.88000 209.677
40.92000 199.624
40.96000 212.508
41.00000 220.231
41.04000 212.748
41.08000 216.557
41.12000 207.154
41.16000 215.264
41.20000 211.263
41.24000 217.981
41.28000 217.998
41.32000 206.618
41.36000 211.475
41.40000 210.638
41.44000 216.943
41.48000 211.611
41.52000 205.521
41.56000 203.954
41.60000 211.810
41.64000 205.978
41.68000 216.352
41.72000 206.728
41.76000 205.606
41.80000 214.110
41.84000 212.187
41.88000 210.266
41.92000 203.250
41.96000 208.357
42.00000 199.902
42.04000 200.406
42.08000 198.672
42.12000 198.271
42.16000 212.237
42.20000 220.172
42.24000 193.467
42.28000 216.282
42.32000 228.870
42.36000 215.580
42.40000 205.807
42.44000 204.873
42.48000 215.768
42.52000 206.944
42.56000 218.062
42.60000 203.511
42.64000 210.206
42.68000 206.624
42.72000 198.563
42.76000 184.472
42.80000 190.211
42.84000 204.704
42.88000 190.443
42.92000 201.391
42.96000 206.457
43.00000 197.224
43.04000 192.133
43.08000 194.673
43.12000 195.632
43.16000 196.750
43.20000 189.403
43.24000 193.726
43.28000 202.748
43.32000 195.678
43.36000 183.320
43.40000 195.633
43.44000 201.045
43.48000 200.585
43.52000 194.422
43.56000 196.695
43.60000 189.314
43.64000 185.398
43.68000 193.410
43.72000 198.632
43.76000 187.735
43.80000 198.762
43.84000 193.483
43.88000 197.066
43.92000 195.115
43.96000 189.442
44.00000 201.035
44.04000 194.999
44.08000 187.551
44.12000 192.425
44.16000 187.823
44.20000 195.223
44.24000 194.422
44.28000 196.262
44.32000 197.727
44.36000 196.384
44.40000 205.118
44.44000 210.343
44.48000 200.301
44.52000 196.480
44.56000 200.382
44.60000 211.385
44.64000 199.188
44.68000 216.156
44.72000 205.238
44.76000 211.625
44.80000 201.496
44.84000 205.829
44.88000 227.483
44.92000 212.907
44.96000 216.221
45.00000 202.381
45.04000 216.249
45.08000 204.561
45.12000 214.118
45.16000 206.778
45.20000 203.767
45.24000 198.455
45.28000 202.961
45.32000 206.513
45.36000 202.202
45.40000 197.523
45.44000 204.694
45.48000 199.112
45.52000 197.873
45.56000 198.223
45.60000 188.871
45.64000 179.191
45.68000 181.083
45.72000 178.384
45.76000 170.022
45.80000 178.940
45.84000 178.967
45.88000 183.679
45.92000 184.775
45.96000 172.897
46.00000 185.739
46.04000 187.809
46.08000 176.233
46.12000 183.976
46.16000 173.973
46.20000 175.300
46.24000 176.281
46.28000 175.604
46.32000 173.910
46.36000 172.956
46.40000 173.850
46.44000 174.686
46.48000 176.594
46.52000 182.283
46.56000 183.124
46.60000 178.501
46.64000 180.239
46.68000 181.603
46.72000 174.689
46.76000 182.489
46.80000 173.811
46.84000 165.944
46.88000 166.167
46.92000 174.092
46.96000 168.382
47.00000 172.273
47.04000 168.471
47.08000 169.613
47.12000 161.284
47.16000 175.501
47.20000 163.401
47.24000 163.780
47.28000 165.345
47.32000 162.043
47.36000 165.859
47.40000 170.246
47.44000 158.760
47.48000 169.264
47.52000 169.059
47.56000 157.350
47.60000 169.820
47.64000 165.778
47.68000 174.503
47.72000 157.276
47.76000 156.909
47.80000 161.377
47.84000 168.092
47.88000 165.973
47.92000 157.678
47.96000 150.689
48.00000 158.446
48.04000 156.292
48.08000 157.219
48.12000 158.783
48.16000 177.387
48.20000 152.629
48.24000 166.399
48.28000 165.374
48.32000 160.257
48.36000 164.971
48.40000 161.513
48.44000 147.282
48.48000 151.617
48.52000 158.134
48.56000 149.838
48.60000 168.021
48.64000 150.291
48.68000 162.452
48.72000 153.099
48.76000 152.441
48.80000 155.412
48.84000 156.875
48.88000 157.310
48.92000 155.334
48.96000 158.732
49.00000 149.711
49.04000 157.766
49.08000 159.715
49.12000 157.961
49.16000 146.275
49.20000 153.527
49.24000 150.553
49.28000 137.261
49.32000 160.431
49.36000 147.644
49.40000 165.909
49.44000 155.020
49.48000 157.780
49.52000 147.828
49.56000 152.514
49.60000 155.453
49.64000 157.932
49.68000 150.259
49.72000 149.748
49.76000 147.711
49.80000 155.866
49.84000 150.074
49.88000 157.016
49.92000 158.505
49.96000 158.004
50.00000 169.387
50.04000 152.564
50.08000 151.330
50.12000 149.865
50.16000 165.330
50.20000 160.823
50.24000 149.226
50.28000 159.077
50.32000 152.169
50.36000 155.984
50.40000 171.444
50.44000 168.086
50.48000 157.829
50.52000 164.790
50.56000 159.386
50.60000 163.991
50.64000 173.965
50.68000 155.884
50.72000 167.851
50.76000 171.049
50.80000 161.687
50.84000 157.540
50.88000 153.116
50.92000 152.648
50.96000 165.033
51.00000 148.006
51.04000 148.952
51.08000 161.398
51.12000 151.577
51.16000 149.148
51.20000 151.588
51.24000 148.744
51.28000 144.913
51.32000 141.038
51.36000 146.129
51.40000 148.943
51.44000 141.237
51.48000 141.069
51.52000 137.427
51.56000 146.167
51.60000 144.469
51.64000 141.505
51.68000 150.806
51.72000 140.078
51.76000 146.144
51.80000 133.278
51.84000 139.646
51.88000 145.231
51.92000 139.017
51.96000 143.388
52.00000 140.941
52.04000 139.584
52.08000 132.122
52.12000 146.927
52.16000 142.764
52.20000 130.398
52.24000 140.712
52.28000 148.022
52.32000 149.017
52.36000 148.593
52.40000 146.524
52.44000 151.007
52.48000 143.565
52.52000 135.073
52.56000 142.678
52.60000 139.786
52.64000 133.329
52.68000 140.400
52.72000 139.886
52.76000 136.158
52.80000 150.056
52.84000 141.327
52.88000 142.125
52.92000 145.495
52.96000 141.089
53.00000 144.445
53.04000 137.227
53.08000 140.038
53.12000 142.637
53.16000 138.993
53.20000 132.868
53.24000 149.368
53.28000 133.801
53.32000 134.712
53.36000 139.851
53.40000 136.289
53.44000 137.668
53.48000 146.225
53.52000 137.345
53.56000 130.723
53.60000 134.874
53.64000 146.813
53.68000 135.390
53.72000 132.038
53.76000 137.657
53.80000 134.397
53.84000 129.021
53.88000 135.979
53.92000 132.900
53.96000 143.006
54.00000 139.543
54.04000 136.017
54.08000 139.334
54.12000 136.589
54.16000 136.918
54.20000 139.937
54.24000 146.638
54.28000 141.317
54.32000 129.508
54.36000 141.529
54.40000 138.603
54.44000 135.220
54.48000 144.491
54.52000 130.964
54.56000 133.721
54.60000 140.723
54.64000 141.520
54.68000 133.936
54.72000 129.159
54.76000 137.340
54.80000 133.176
54.84000 132.252
54.88000 125.392
54.92000 136.209
54.96000 131.280
55.00000 132.622
55.04000 138.990
55.08000 133.015
55.12000 147.149
55.16000 141.513
55.20000 149.765
55.24000 148.523
55.28000 147.585
55.32000 153.323
55.36000 159.891
55.40000 156.790
55.44000 161.995
55.48000 166.379
55.52000 166.367
55.56000 174.219
55.60000 163.430
55.64000 185.756
55.68000 182.605
55.72000 199.701
55.76000 212.516
55.80000 210.131
55.84000 224.211
55.88000 215.424
55.92000 225.413
55.96000 217.848
56.00000 221.097
56.04000 223.446
56.08000 197.568
56.12000 209.096
56.16000 190.195
56.20000 176.777
56.24000 187.763
56.28000 170.533
56.32000 168.773
56.36000 167.507
56.40000 160.819
56.44000 162.340
56.48000 155.994
56.52000 152.450
56.56000 132.713
56.60000 141.729
56.64000 146.700
56.68000 135.664
56.72000 139.791
56.76000 143.921
56.80000 139.340
56.84000 125.161
56.88000 129.796
56.92000 128.293
56.96000 130.468
57.00000 124.087
57.04000 131.696
57.08000 131.438
57.12000 134.215
57.16000 127.488
57.20000 120.581
57.24000 128.993
57.28000 126.855
57.32000 130.324
57.36000 127.143
57.40000 109.363
57.44000 124.627
57.48000 120.500
57.52000 128.748
57.56000 127.336
57.60000 119.879
57.64000 114.060
57.68000 124.876
57.72000 126.603
57.76000 129.384
57.80000 129.327
57.84000 132.633
57.88000 132.534
57.92000 124.983
57.96000 124.105
58.00000 120.339
58.04000 135.023
58.08000 125.413
58.12000 127.358
58.16000 124.649
58.20000 132.336
58.24000 123.594
58.28000 114.791
58.32000 121.846
58.36000 122.806
58.40000 127.801
58.44000 137.913
58.48000 125.226
58.52000 121.560
58.56000 121.605
58.60000 123.812
58.64000 113.267
58.68000 121.679
58.72000 128.874
58.76000 117.462
58.80000 130.005
58.84000 123.842
58.88000 121.965
58.92000 116.777
58.96000 113.124
59.00000 124.385
59.04000 116.828
59.08000 122.486
59.12000 115.403
59.16000 114.686
59.20000 118.598
59.24000 122.557
59.28000 121.015
59.32000 111.499
59.36000 115.403
59.40000 124.129
59.44000 105.098
59.48000 114.054
59.52000 117.002
59.56000 116.592
59.60000 114.435
59.64000 134.268
59.68000 127.418
59.72000 116.162
59.76000 117.296
59.80000 110.991
59.84000 114.203
59.88000 116.406
59.92000 117.070
59.96000 123.418
60.00000 114.990
60.04000 121.304
60.08000 122.267
60.12000 116.634
60.16000 124.133
60.20000 121.885
60.24000 123.666
60.28000 114.949
60.32000 107.000
60.36000 113.050
60.40000 128.521
60.44000 109.397
60.48000 117.270
60.52000 103.004
60.56000 116.412
60.60000 122.532
60.64000 121.068
60.68000 123.132
60.72000 124.813
60.76000 120.288
60.80000 106.429
60.84000 119.759
60.88000 115.566
60.92000 118.693
60.96000 115.362
61.00000 115.668
61.04000 119.123
61.08000 125.359
61.12000 129.673
61.16000 131.005
61.20000 126.222
61.24000 122.150
61.28000 129.008
61.32000 125.553
61.36000 121.625
61.40000 125.363
61.44000 124.611
61.48000 131.857
61.52000 163.392
61.56000 192.052
61.60000 243.678
61.64000 289.849
61.68000 303.321
61.72000 294.221
61.76000 294.535
61.80000 234.925
61.84000 156.760
61.88000 139.504
61.92000 136.189
61.96000 128.833
62.00000 135.532
62.04000 121.871
62.08000 125.779
62.12000 130.871
62.16000 124.242
62.20000 136.715
62.24000 123.245
62.28000 128.898
62.32000 133.663
62.36000 128.167
62.40000 130.789
62.44000 126.300
62.48000 130.422
62.52000 126.738
62.56000 118.519
62.60000 131.142
62.64000 131.214
62.68000 139.423
62.72000 133.387
62.76000 140.303
62.80000 126.517
62.84000 131.781
62.88000 125.224
62.92000 133.664
62.96000 139.928
63.00000 130.355
63.04000 138.197
63.08000 118.936
63.12000 133.359
63.16000 135.942
63.20000 131.281
63.24000 135.968
63.28000 144.715
63.32000 132.463
63.36000 136.507
63.40000 131.501
63.44000 137.824
63.48000 136.453
63.52000 140.550
63.56000 132.511
63.60000 144.827
63.64000 139.641
63.68000 138.978
63.72000 140.083
63.76000 146.063
63.80000 144.458
63.84000 144.477
63.88000 144.518
63.92000 148.671
63.96000 152.177
64.00000 140.543
64.04000 148.647
64.08000 142.556
64.12000 146.497
64.16000 150.430
64.20000 156.923
64.24000 153.999
64.28000 147.454
64.32000 153.952
64.36000 148.051
64.40000 153.890
64.44000 151.865
64.48000 156.114
64.52000 168.574
64.56000 158.495
64.60000 168.634
64.64000 171.521
64.68000 168.214
64.72000 185.753
64.76000 178.259
64.80000 181.378
64.84000 185.731
64.88000 193.940
64.92000 184.134
64.96000 181.297
65.00000 184.931
65.04000 197.230
65.08000 182.883
65.12000 203.583
65.16000 208.188
65.20000 198.050
65.24000 210.478
65.28000 213.427
65.32000 235.649
65.36000 244.351
65.40000 246.296
65.44000 261.762
65.48000 284.918
65.52000 282.310
65.56000 290.220
65.60000 329.152
65.64000 379.044
65.68000 514.819
65.72000 836.854
65.76000 1310.185
65.80000 1762.400
65.84000 1972.861
65.88000 2042.609
65.92000 1955.718
65.96000 1693.548
66.00000 1148.635
66.04000 742.163
66.08000 515.117
66.12000 409.638
66.16000 381.758
66.20000 361.759
66.24000 388.582
66.28000 460.956
66.32000 537.066
66.36000 621.084
66.40000 636.341
66.44000 646.383
66.48000 626.187
66.52000 581.263
66.56000 489.124
66.60000 410.527
66.64000 367.412
66.68000 367.523
66.72000 355.065
66.76000 358.061
66.80000 375.583
66.84000 373.802
66.88000 373.554
66.92000 369.341
66.96000 370.575
67.00000 371.317
67.04000 386.008
67.08000 393.068
67.12000 407.143
67.16000 401.210
67.20000 401.808
67.24000 407.974
67.28000 408.465
67.32000 412.810
67.36000 415.467
67.40000 438.206
67.44000 423.709
67.48000 428.260
67.52000 436.954
67.56000 438.197
67.60000 443.189
67.64000 454.929
67.68000 461.680
67.72000 479.802
67.76000 475.108
67.80000 479.779
67.84000 489.230
67.88000 505.339
67.92000 506.168
67.96000 521.294
68.00000 522.427
68.04000 524.544
68.08000 527.316
68.12000 528.729
68.16000 552.124
68.20000 578.070
68.24000 590.532
68.28000 574.911
68.32000 611.651
68.36000 634.080
68.40000 652.757
68.44000 687.571
68.48000 687.993
68.52000 722.837
68.56000 785.695
68.60000 848.278
68.64000 975.235
68.68000 1149.991
68.72000 1303.259
68.76000 1460.793
68.80000 1667.471
68.84000 1859.301
68.88000 2232.614
68.92000 3143.969
68.96000 8051.635
69.00000 19551.117
69.04000 33277.438
69.08000 41686.211
69.12000 44901.949
69.16000 47736.754
69.20000 48675.930
69.24000 41453.938
69.28000 29821.316
69.32000 23714.588
69.36000 21990.813
69.40000 19241.242
69.44000 13011.984
69.48000 5851.124
69.52000 2502.809
69.56000 1459.515
69.60000 1169.608
69.64000 987.759
69.68000 870.938
69.72000 777.160
69.76000 708.067
69.80000 646.150
69.84000 646.669
69.88000 575.585
69.92000 557.666
69.96000 518.729
70.00000 498.737