File: XRD/XRD/07-10-2025 Dep 6/XY Data/BTO_Mapping_Theta2Theta_07-10-2025_001_51_6-180_-19-021.xy
20.00000 454.675
20.04000 476.774
20.08000 483.277
20.12000 457.401
20.16000 471.746
20.20000 463.952
20.24000 487.099
20.28000 477.128
20.32000 469.314
20.36000 465.628
20.40000 464.674
20.44000 452.774
20.48000 474.405
20.52000 447.798
20.56000 453.132
20.60000 449.485
20.64000 460.290
20.68000 466.576
20.72000 467.022
20.76000 469.624
20.80000 452.119
20.84000 476.880
20.88000 446.325
20.92000 466.060
20.96000 457.283
21.00000 455.437
21.04000 465.271
21.08000 463.796
21.12000 451.489
21.16000 455.348
21.20000 468.637
21.24000 452.721
21.28000 462.789
21.32000 466.831
21.36000 490.484
21.40000 458.645
21.44000 449.533
21.48000 475.040
21.52000 445.531
21.56000 459.876
21.60000 469.707
21.64000 456.623
21.68000 467.195
21.72000 467.482
21.76000 457.822
21.80000 478.878
21.84000 461.242
21.88000 494.404
21.92000 498.360
21.96000 508.130
22.00000 518.558
22.04000 527.763
22.08000 530.054
22.12000 547.612
22.16000 528.013
22.20000 502.443
22.24000 502.931
22.28000 486.304
22.32000 489.749
22.36000 473.892
22.40000 477.350
22.44000 477.235
22.48000 447.894
22.52000 452.686
22.56000 455.050
22.60000 459.813
22.64000 450.639
22.68000 443.496
22.72000 441.787
22.76000 436.434
22.80000 441.290
22.84000 445.907
22.88000 429.079
22.92000 462.902
22.96000 433.077
23.00000 435.611
23.04000 457.203
23.08000 413.333
23.12000 421.121
23.16000 430.029
23.20000 439.208
23.24000 441.978
23.28000 424.237
23.32000 414.967
23.36000 426.581
23.40000 431.067
23.44000 432.382
23.48000 433.137
23.52000 406.761
23.56000 425.527
23.60000 441.305
23.64000 440.508
23.68000 445.888
23.72000 462.643
23.76000 455.161
23.80000 494.621
23.84000 485.093
23.88000 481.316
23.92000 498.304
23.96000 520.062
24.00000 499.648
24.04000 506.287
24.08000 479.616
24.12000 482.782
24.16000 487.577
24.20000 472.333
24.24000 466.611
24.28000 462.173
24.32000 446.316
24.36000 446.900
24.40000 418.099
24.44000 402.973
24.48000 425.638
24.52000 417.896
24.56000 416.347
24.60000 410.360
24.64000 407.856
24.68000 424.294
24.72000 401.927
24.76000 403.586
24.80000 409.714
24.84000 399.184
24.88000 396.845
24.92000 401.777
24.96000 403.855
25.00000 390.559
25.04000 400.621
25.08000 395.634
25.12000 412.833
25.16000 408.029
25.20000 403.013
25.24000 384.993
25.28000 401.349
25.32000 405.622
25.36000 389.954
25.40000 398.606
25.44000 393.308
25.48000 403.062
25.52000 400.567
25.56000 392.327
25.60000 382.737
25.64000 401.528
25.68000 392.828
25.72000 399.548
25.76000 379.562
25.80000 377.492
25.84000 392.538
25.88000 389.183
25.92000 391.234
25.96000 380.949
26.00000 382.943
26.04000 389.981
26.08000 370.388
26.12000 368.413
26.16000 376.535
26.20000 385.640
26.24000 389.446
26.28000 371.232
26.32000 389.088
26.36000 391.249
26.40000 395.141
26.44000 391.758
26.48000 379.122
26.52000 392.057
26.56000 394.269
26.60000 374.410
26.64000 348.943
26.68000 378.646
26.72000 382.763
26.76000 376.637
26.80000 369.933
26.84000 368.789
26.88000 362.980
26.92000 354.797
26.96000 373.952
27.00000 380.423
27.04000 361.482
27.08000 362.608
27.12000 382.243
27.16000 387.493
27.20000 354.479
27.24000 360.460
27.28000 351.304
27.32000 387.225
27.36000 370.963
27.40000 362.540
27.44000 375.040
27.48000 387.973
27.52000 373.975
27.56000 370.710
27.60000 354.730
27.64000 360.050
27.68000 358.043
27.72000 385.922
27.76000 370.173
27.80000 365.412
27.84000 359.158
27.88000 371.582
27.92000 361.734
27.96000 373.024
28.00000 368.600
28.04000 351.229
28.08000 348.879
28.12000 348.276
28.16000 351.974
28.20000 361.172
28.24000 364.390
28.28000 354.415
28.32000 358.515
28.36000 353.579
28.40000 359.134
28.44000 341.031
28.48000 344.228
28.52000 337.433
28.56000 355.850
28.60000 374.449
28.64000 349.561
28.68000 361.793
28.72000 345.365
28.76000 351.095
28.80000 361.386
28.84000 370.590
28.88000 344.103
28.92000 371.854
28.96000 356.534
29.00000 344.843
29.04000 344.073
29.08000 337.901
29.12000 329.957
29.16000 368.681
29.20000 354.310
29.24000 359.245
29.28000 348.304
29.32000 348.138
29.36000 338.850
29.40000 352.497
29.44000 331.996
29.48000 349.971
29.52000 358.770
29.56000 348.715
29.60000 342.987
29.64000 349.624
29.68000 349.825
29.72000 358.211
29.76000 361.321
29.80000 349.274
29.84000 362.336
29.88000 368.210
29.92000 363.118
29.96000 354.125
30.00000 394.636
30.04000 396.459
30.08000 382.186
30.12000 386.830
30.16000 382.690
30.20000 384.477
30.24000 367.410
30.28000 358.667
30.32000 377.744
30.36000 371.151
30.40000 348.567
30.44000 344.286
30.48000 355.028
30.52000 374.304
30.56000 360.688
30.60000 360.544
30.64000 369.548
30.68000 361.370
30.72000 361.481
30.76000 366.452
30.80000 362.290
30.84000 388.958
30.88000 389.314
30.92000 408.484
30.96000 413.357
31.00000 461.663
31.04000 462.835
31.08000 525.153
31.12000 599.227
31.16000 705.745
31.20000 817.131
31.24000 892.242
31.28000 1026.669
31.32000 1119.414
31.36000 1195.517
31.40000 1215.343
31.44000 1187.586
31.48000 1098.655
31.52000 962.895
31.56000 835.614
31.60000 729.638
31.64000 616.905
31.68000 534.952
31.72000 462.392
31.76000 450.732
31.80000 404.596
31.84000 390.344
31.88000 377.258
31.92000 355.885
31.96000 379.615
32.00000 355.887
32.04000 353.849
32.08000 326.198
32.12000 343.193
32.16000 344.179
32.20000 330.093
32.24000 339.076
32.28000 336.367
32.32000 331.526
32.36000 314.063
32.40000 327.581
32.44000 336.358
32.48000 327.386
32.52000 327.632
32.56000 325.589
32.60000 305.418
32.64000 308.474
32.68000 316.361
32.72000 316.997
32.76000 329.427
32.80000 335.833
32.84000 384.674
32.88000 417.897
32.92000 504.851
32.96000 515.307
33.00000 535.094
33.04000 489.808
33.08000 424.328
33.12000 365.654
33.16000 341.100
33.20000 306.911
33.24000 297.901
33.28000 288.592
33.32000 303.718
33.36000 286.435
33.40000 302.790
33.44000 291.079
33.48000 291.221
33.52000 283.034
33.56000 290.233
33.60000 296.672
33.64000 285.508
33.68000 285.122
33.72000 301.546
33.76000 286.597
33.80000 299.132
33.84000 293.835
33.88000 293.809
33.92000 298.727
33.96000 308.080
34.00000 320.995
34.04000 308.311
34.08000 307.761
34.12000 300.082
34.16000 326.277
34.20000 330.564
34.24000 331.987
34.28000 343.582
34.32000 341.234
34.36000 331.574
34.40000 331.921
34.44000 328.578
34.48000 320.688
34.52000 315.124
34.56000 305.899
34.60000 305.788
34.64000 290.153
34.68000 279.324
34.72000 289.467
34.76000 293.505
34.80000 276.880
34.84000 294.512
34.88000 281.287
34.92000 279.220
34.96000 266.701
35.00000 279.391
35.04000 290.155
35.08000 266.609
35.12000 268.763
35.16000 277.528
35.20000 269.125
35.24000 273.218
35.28000 263.526
35.32000 257.676
35.36000 260.167
35.40000 246.577
35.44000 267.196
35.48000 258.119
35.52000 259.640
35.56000 264.045
35.60000 273.691
35.64000 256.692
35.68000 269.647
35.72000 268.461
35.76000 272.245
35.80000 254.509
35.84000 259.251
35.88000 270.686
35.92000 251.870
35.96000 267.531
36.00000 247.522
36.04000 254.401
36.08000 261.321
36.12000 265.635
36.16000 259.356
36.20000 251.526
36.24000 248.553
36.28000 247.531
36.32000 251.527
36.36000 262.296
36.40000 280.012
36.44000 252.087
36.48000 252.655
36.52000 254.943
36.56000 252.622
36.60000 251.286
36.64000 246.109
36.68000 248.709
36.72000 256.835
36.76000 255.993
36.80000 251.903
36.84000 247.789
36.88000 277.572
36.92000 259.741
36.96000 269.927
37.00000 266.196
37.04000 275.456
37.08000 272.019
37.12000 275.803
37.16000 259.464
37.20000 254.549
37.24000 255.941
37.28000 262.357
37.32000 260.650
37.36000 277.100
37.40000 238.664
37.44000 252.536
37.48000 249.440
37.52000 250.750
37.56000 269.845
37.60000 246.152
37.64000 250.571
37.68000 249.007
37.72000 251.596
37.76000 255.349
37.80000 253.288
37.84000 250.634
37.88000 244.616
37.92000 249.321
37.96000 251.109
38.00000 245.746
38.04000 250.987
38.08000 268.629
38.12000 253.794
38.16000 247.975
38.20000 256.617
38.24000 261.314
38.28000 267.929
38.32000 275.226
38.36000 292.222
38.40000 330.934
38.44000 362.419
38.48000 442.605
38.52000 503.818
38.56000 598.401
38.60000 738.618
38.64000 833.990
38.68000 933.623
38.72000 942.684
38.76000 954.921
38.80000 903.430
38.84000 782.074
38.88000 671.041
38.92000 551.008
38.96000 460.035
39.00000 370.146
39.04000 326.866
39.08000 291.575
39.12000 264.786
39.16000 250.479
39.20000 253.840
39.24000 251.624
39.28000 239.836
39.32000 242.531
39.36000 237.296
39.40000 237.225
39.44000 211.770
39.48000 228.607
39.52000 231.077
39.56000 246.887
39.60000 228.022
39.64000 236.479
39.68000 233.726
39.72000 237.319
39.76000 242.903
39.80000 241.495
39.84000 239.647
39.88000 234.549
39.92000 235.672
39.96000 232.249
40.00000 220.340
40.04000 232.093
40.08000 224.994
40.12000 221.773
40.16000 213.309
40.20000 213.997
40.24000 214.812
40.28000 211.953
40.32000 224.952
40.36000 212.867
40.40000 232.755
40.44000 217.759
40.48000 212.820
40.52000 213.153
40.56000 219.210
40.60000 211.986
40.64000 218.571
40.68000 207.103
40.72000 213.341
40.76000 201.792
40.80000 210.245
40.84000 213.417
40.88000 223.351
40.92000 216.814
40.96000 225.904
41.00000 211.137
41.04000 204.620
41.08000 214.802
41.12000 221.285
41.16000 206.902
41.20000 211.148
41.24000 205.847
41.28000 204.598
41.32000 202.565
41.36000 193.791
41.40000 215.417
41.44000 216.031
41.48000 202.499
41.52000 206.066
41.56000 195.920
41.60000 203.597
41.64000 203.272
41.68000 215.896
41.72000 207.305
41.76000 209.820
41.80000 221.921
41.84000 207.883
41.88000 209.325
41.92000 211.962
41.96000 209.756
42.00000 201.023
42.04000 209.011
42.08000 211.516
42.12000 234.073
42.16000 234.927
42.20000 216.063
42.24000 219.454
42.28000 222.535
42.32000 220.130
42.36000 216.244
42.40000 214.356
42.44000 212.963
42.48000 222.012
42.52000 206.225
42.56000 206.892
42.60000 209.346
42.64000 201.900
42.68000 202.266
42.72000 192.976
42.76000 194.289
42.80000 202.512
42.84000 192.386
42.88000 205.834
42.92000 197.484
42.96000 194.188
43.00000 212.511
43.04000 193.378
43.08000 182.247
43.12000 185.862
43.16000 187.692
43.20000 207.389
43.24000 196.921
43.28000 199.234
43.32000 199.312
43.36000 188.387
43.40000 194.123
43.44000 189.865
43.48000 204.226
43.52000 202.354
43.56000 195.466
43.60000 193.795
43.64000 192.391
43.68000 203.700
43.72000 192.241
43.76000 190.805
43.80000 181.777
43.84000 193.013
43.88000 201.346
43.92000 195.161
43.96000 191.171
44.00000 174.774
44.04000 195.092
44.08000 199.037
44.12000 192.707
44.16000 199.084
44.20000 190.053
44.24000 191.065
44.28000 199.343
44.32000 195.640
44.36000 193.418
44.40000 189.373
44.44000 206.128
44.48000 205.714
44.52000 192.806
44.56000 212.831
44.60000 220.236
44.64000 220.445
44.68000 216.278
44.72000 231.021
44.76000 214.485
44.80000 219.725
44.84000 236.029
44.88000 220.484
44.92000 230.419
44.96000 240.863
45.00000 234.101
45.04000 248.314
45.08000 237.606
45.12000 254.806
45.16000 253.489
45.20000 239.606
45.24000 223.328
45.28000 225.566
45.32000 226.582
45.36000 213.967
45.40000 224.733
45.44000 213.912
45.48000 206.957
45.52000 204.977
45.56000 207.745
45.60000 202.585
45.64000 192.820
45.68000 202.441
45.72000 193.834
45.76000 201.699
45.80000 182.964
45.84000 185.868
45.88000 175.081
45.92000 186.907
45.96000 171.515
46.00000 176.552
46.04000 185.377
46.08000 172.561
46.12000 168.419
46.16000 167.349
46.20000 180.307
46.24000 170.240
46.28000 179.082
46.32000 171.516
46.36000 173.622
46.40000 172.653
46.44000 167.170
46.48000 169.618
46.52000 172.014
46.56000 165.742
46.60000 165.854
46.64000 167.311
46.68000 171.867
46.72000 171.835
46.76000 175.774
46.80000 171.218
46.84000 165.079
46.88000 175.078
46.92000 176.168
46.96000 161.558
47.00000 185.643
47.04000 171.621
47.08000 156.361
47.12000 171.192
47.16000 172.802
47.20000 161.055
47.24000 172.709
47.28000 166.246
47.32000 163.413
47.36000 162.208
47.40000 161.879
47.44000 162.385
47.48000 163.134
47.52000 166.079
47.56000 167.036
47.60000 160.393
47.64000 162.953
47.68000 160.428
47.72000 165.356
47.76000 163.835
47.80000 165.984
47.84000 155.500
47.88000 158.664
47.92000 163.024
47.96000 154.866
48.00000 151.697
48.04000 147.715
48.08000 158.520
48.12000 151.829
48.16000 166.725
48.20000 162.841
48.24000 156.942
48.28000 159.814
48.32000 162.059
48.36000 154.606
48.40000 161.462
48.44000 145.336
48.48000 157.897
48.52000 158.129
48.56000 150.593
48.60000 161.061
48.64000 154.826
48.68000 155.754
48.72000 154.934
48.76000 150.131
48.80000 153.785
48.84000 140.711
48.88000 153.074
48.92000 154.164
48.96000 157.968
49.00000 156.454
49.04000 145.646
49.08000 163.042
49.12000 149.368
49.16000 154.699
49.20000 149.351
49.24000 148.207
49.28000 144.736
49.32000 145.193
49.36000 154.528
49.40000 157.977
49.44000 148.898
49.48000 151.072
49.52000 145.587
49.56000 135.479
49.60000 153.286
49.64000 160.817
49.68000 144.129
49.72000 159.330
49.76000 145.436
49.80000 159.976
49.84000 156.616
49.88000 142.802
49.92000 147.954
49.96000 142.226
50.00000 151.195
50.04000 147.880
50.08000 153.630
50.12000 156.539
50.16000 156.651
50.20000 159.806
50.24000 154.711
50.28000 157.139
50.32000 152.800
50.36000 154.637
50.40000 165.400
50.44000 155.491
50.48000 152.298
50.52000 145.444
50.56000 157.217
50.60000 155.649
50.64000 164.087
50.68000 155.154
50.72000 148.401
50.76000 159.438
50.80000 153.530
50.84000 165.149
50.88000 162.196
50.92000 148.497
50.96000 158.338
51.00000 157.046
51.04000 152.034
51.08000 149.744
51.12000 149.229
51.16000 152.053
51.20000 154.128
51.24000 145.479
51.28000 140.082
51.32000 137.255
51.36000 152.514
51.40000 141.690
51.44000 147.901
51.48000 133.528
51.52000 148.445
51.56000 142.588
51.60000 128.877
51.64000 147.770
51.68000 139.336
51.72000 132.246
51.76000 139.981
51.80000 149.282
51.84000 136.812
51.88000 147.246
51.92000 140.260
51.96000 138.663
52.00000 146.860
52.04000 149.793
52.08000 142.689
52.12000 125.607
52.16000 135.021
52.20000 141.540
52.24000 142.605
52.28000 131.661
52.32000 142.321
52.36000 136.568
52.40000 139.551
52.44000 133.453
52.48000 138.235
52.52000 132.932
52.56000 145.150
52.60000 133.490
52.64000 141.689
52.68000 147.472
52.72000 134.673
52.76000 137.792
52.80000 142.553
52.84000 142.962
52.88000 141.329
52.92000 129.772
52.96000 145.832
53.00000 147.289
53.04000 144.805
53.08000 145.047
53.12000 136.837
53.16000 140.073
53.20000 141.314
53.24000 146.618
53.28000 141.345
53.32000 139.601
53.36000 153.967
53.40000 154.074
53.44000 158.812
53.48000 154.506
53.52000 143.739
53.56000 133.248
53.60000 139.440
53.64000 147.343
53.68000 142.982
53.72000 151.739
53.76000 136.473
53.80000 144.161
53.84000 148.345
53.88000 137.150
53.92000 140.305
53.96000 129.675
54.00000 138.680
54.04000 140.435
54.08000 138.706
54.12000 133.486
54.16000 141.848
54.20000 133.629
54.24000 134.751
54.28000 136.620
54.32000 132.349
54.36000 139.516
54.40000 131.960
54.44000 133.989
54.48000 143.682
54.52000 136.074
54.56000 126.916
54.60000 132.832
54.64000 142.752
54.68000 134.804
54.72000 138.469
54.76000 125.318
54.80000 139.584
54.84000 149.732
54.88000 140.463
54.92000 144.168
54.96000 142.660
55.00000 143.097
55.04000 145.479
55.08000 157.582
55.12000 130.946
55.16000 144.308
55.20000 138.851
55.24000 151.106
55.28000 157.524
55.32000 155.835
55.36000 161.018
55.40000 160.775
55.44000 172.252
55.48000 185.896
55.52000 195.925
55.56000 224.410
55.60000 241.955
55.64000 273.465
55.68000 308.969
55.72000 331.345
55.76000 383.704
55.80000 438.999
55.84000 510.086
55.88000 523.091
55.92000 539.426
55.96000 562.531
56.00000 549.226
56.04000 508.949
56.08000 496.306
56.12000 442.484
56.16000 391.605
56.20000 348.382
56.24000 307.840
56.28000 269.450
56.32000 236.584
56.36000 227.785
56.40000 188.079
56.44000 176.909
56.48000 166.703
56.52000 164.845
56.56000 140.697
56.60000 150.347
56.64000 151.506
56.68000 145.921
56.72000 144.973
56.76000 135.732
56.80000 139.239
56.84000 140.963
56.88000 132.665
56.92000 128.922
56.96000 124.675
57.00000 129.242
57.04000 131.663
57.08000 128.494
57.12000 133.181
57.16000 122.992
57.20000 131.858
57.24000 121.956
57.28000 131.231
57.32000 124.237
57.36000 123.034
57.40000 115.040
57.44000 132.414
57.48000 127.967
57.52000 125.315
57.56000 126.539
57.60000 126.309
57.64000 123.405
57.68000 122.569
57.72000 117.806
57.76000 122.562
57.80000 131.850
57.84000 130.557
57.88000 122.343
57.92000 126.551
57.96000 129.531
58.00000 137.355
58.04000 126.018
58.08000 128.128
58.12000 121.981
58.16000 120.518
58.20000 121.272
58.24000 122.109
58.28000 115.698
58.32000 114.174
58.36000 116.609
58.40000 112.409
58.44000 111.716
58.48000 116.950
58.52000 116.295
58.56000 119.578
58.60000 115.664
58.64000 127.332
58.68000 125.253
58.72000 120.860
58.76000 121.550
58.80000 119.328
58.84000 111.762
58.88000 122.082
58.92000 119.926
58.96000 111.824
59.00000 113.514
59.04000 108.396
59.08000 116.610
59.12000 119.738
59.16000 116.564
59.20000 116.090
59.24000 119.464
59.28000 118.224
59.32000 123.757
59.36000 119.721
59.40000 115.713
59.44000 112.752
59.48000 120.199
59.52000 111.731
59.56000 117.652
59.60000 126.375
59.64000 111.831
59.68000 108.841
59.72000 113.398
59.76000 119.815
59.80000 120.405
59.84000 122.559
59.88000 111.148
59.92000 109.529
59.96000 115.551
60.00000 118.051
60.04000 115.274
60.08000 128.866
60.12000 119.067
60.16000 114.800
60.20000 109.920
60.24000 116.152
60.28000 113.907
60.32000 116.862
60.36000 116.351
60.40000 116.223
60.44000 105.602
60.48000 109.840
60.52000 117.025
60.56000 111.234
60.60000 109.699
60.64000 127.214
60.68000 119.359
60.72000 115.948
60.76000 123.099
60.80000 114.542
60.84000 118.854
60.88000 120.036
60.92000 119.984
60.96000 118.216
61.00000 111.638
61.04000 119.192
61.08000 122.448
61.12000 121.155
61.16000 116.982
61.20000 119.644
61.24000 127.516
61.28000 122.970
61.32000 123.734
61.36000 118.784
61.40000 120.374
61.44000 132.317
61.48000 131.455
61.52000 157.123
61.56000 197.455
61.60000 237.484
61.64000 283.349
61.68000 301.733
61.72000 289.464
61.76000 273.591
61.80000 221.272
61.84000 174.182
61.88000 135.104
61.92000 132.727
61.96000 133.588
62.00000 134.440
62.04000 137.933
62.08000 129.260
62.12000 133.048
62.16000 120.984
62.20000 128.294
62.24000 129.275
62.28000 130.344
62.32000 128.094
62.36000 121.654
62.40000 127.626
62.44000 128.494
62.48000 136.173
62.52000 128.803
62.56000 128.323
62.60000 122.555
62.64000 122.392
62.68000 129.583
62.72000 126.808
62.76000 126.905
62.80000 137.716
62.84000 128.704
62.88000 126.625
62.92000 127.312
62.96000 123.592
63.00000 118.011
63.04000 123.733
63.08000 133.846
63.12000 133.338
63.16000 128.878
63.20000 128.465
63.24000 131.928
63.28000 139.763
63.32000 140.034
63.36000 139.656
63.40000 131.528
63.44000 151.319
63.48000 133.246
63.52000 136.958
63.56000 131.774
63.60000 132.693
63.64000 127.726
63.68000 129.161
63.72000 134.702
63.76000 132.567
63.80000 129.460
63.84000 133.319
63.88000 136.743
63.92000 150.505
63.96000 136.834
64.00000 136.042
64.04000 139.133
64.08000 140.424
64.12000 146.485
64.16000 137.997
64.20000 150.572
64.24000 158.210
64.28000 146.248
64.32000 143.108
64.36000 157.681
64.40000 146.515
64.44000 154.972
64.48000 156.561
64.52000 160.777
64.56000 153.926
64.60000 161.614
64.64000 160.858
64.68000 166.201
64.72000 169.723
64.76000 168.410
64.80000 169.199
64.84000 178.656
64.88000 182.149
64.92000 190.399
64.96000 182.273
65.00000 196.170
65.04000 186.105
65.08000 195.495
65.12000 200.619
65.16000 206.531
65.20000 208.125
65.24000 216.923
65.28000 225.620
65.32000 233.494
65.36000 249.355
65.40000 272.444
65.44000 261.568
65.48000 286.166
65.52000 299.247
65.56000 323.977
65.60000 358.284
65.64000 423.136
65.68000 560.986
65.72000 876.473
65.76000 1326.787
65.80000 1740.958
65.84000 1924.559
65.88000 1891.535
65.92000 1849.011
65.96000 1476.055
66.00000 1031.343
66.04000 640.989
66.08000 452.109
66.12000 393.402
66.16000 346.218
66.20000 357.182
66.24000 379.867
66.28000 426.310
66.32000 506.946
66.36000 589.594
66.40000 637.232
66.44000 596.612
66.48000 584.388
66.52000 514.913
66.56000 443.833
66.60000 387.016
66.64000 359.311
66.68000 334.291
66.72000 342.476
66.76000 342.521
66.80000 333.981
66.84000 361.925
66.88000 341.051
66.92000 348.419
66.96000 349.723
67.00000 356.839
67.04000 354.380
67.08000 376.783
67.12000 391.794
67.16000 384.045
67.20000 390.685
67.24000 382.778
67.28000 392.948
67.32000 378.103
67.36000 392.978
67.40000 407.233
67.44000 411.253
67.48000 411.322
67.52000 409.407
67.56000 429.243
67.60000 411.642
67.64000 426.420
67.68000 439.591
67.72000 450.411
67.76000 457.758
67.80000 463.806
67.84000 466.647
67.88000 458.835
67.92000 481.474
67.96000 468.204
68.00000 497.373
68.04000 490.644
68.08000 518.272
68.12000 516.464
68.16000 503.138
68.20000 519.071
68.24000 559.085
68.28000 561.090
68.32000 562.417
68.36000 569.913
68.40000 608.828
68.44000 629.953
68.48000 670.631
68.52000 701.283
68.56000 761.398
68.60000 833.295
68.64000 933.146
68.68000 1097.782
68.72000 1261.231
68.76000 1434.851
68.80000 1569.258
68.84000 1800.831
68.88000 2187.418
68.92000 3197.637
68.96000 8824.435
69.00000 20428.012
69.04000 32757.766
69.08000 39430.461
69.12000 42097.879
69.16000 45047.805
69.20000 44811.141
69.24000 36079.496
69.28000 26619.744
69.32000 21886.791
69.36000 20320.773
69.40000 17115.264
69.44000 10784.377
69.48000 4896.360
69.52000 2102.063
69.56000 1303.319
69.60000 1047.339
69.64000 927.062
69.68000 775.323
69.72000 729.279
69.76000 673.370
69.80000 625.203
69.84000 544.436
69.88000 533.643
69.92000 532.370
69.96000 515.826
70.00000 494.993