File: XRD/XRD/07-10-2025 Dep 6/XY Data/BTO_Mapping_Theta2Theta_07-10-2025_001_54_6-691_-7-431.xy
20.00000 495.738
20.04000 454.045
20.08000 476.932
20.12000 485.958
20.16000 478.896
20.20000 467.758
20.24000 469.269
20.28000 475.407
20.32000 483.887
20.36000 468.716
20.40000 463.939
20.44000 467.270
20.48000 474.406
20.52000 478.679
20.56000 472.750
20.60000 457.118
20.64000 445.776
20.68000 469.520
20.72000 456.708
20.76000 461.396
20.80000 449.674
20.84000 458.828
20.88000 453.132
20.92000 473.969
20.96000 466.396
21.00000 455.576
21.04000 466.778
21.08000 461.672
21.12000 452.208
21.16000 471.867
21.20000 477.383
21.24000 457.752
21.28000 467.295
21.32000 441.114
21.36000 454.097
21.40000 457.253
21.44000 460.263
21.48000 456.420
21.52000 460.694
21.56000 449.644
21.60000 462.214
21.64000 452.098
21.68000 468.519
21.72000 449.303
21.76000 469.392
21.80000 470.559
21.84000 487.187
21.88000 509.400
21.92000 489.691
21.96000 508.559
22.00000 509.521
22.04000 511.625
22.08000 510.374
22.12000 508.435
22.16000 494.065
22.20000 509.804
22.24000 490.496
22.28000 489.835
22.32000 468.851
22.36000 469.004
22.40000 457.321
22.44000 475.173
22.48000 433.741
22.52000 454.483
22.56000 434.040
22.60000 448.687
22.64000 434.467
22.68000 448.093
22.72000 457.911
22.76000 432.624
22.80000 438.691
22.84000 434.872
22.88000 436.399
22.92000 427.341
22.96000 437.313
23.00000 469.440
23.04000 429.446
23.08000 442.987
23.12000 433.796
23.16000 427.667
23.20000 429.736
23.24000 430.885
23.28000 424.916
23.32000 435.013
23.36000 430.881
23.40000 449.185
23.44000 435.096
23.48000 427.213
23.52000 437.088
23.56000 427.664
23.60000 426.628
23.64000 446.132
23.68000 448.921
23.72000 451.775
23.76000 460.058
23.80000 470.054
23.84000 461.936
23.88000 479.666
23.92000 500.167
23.96000 503.593
24.00000 502.787
24.04000 519.506
24.08000 495.074
24.12000 483.658
24.16000 485.337
24.20000 456.283
24.24000 456.386
24.28000 444.855
24.32000 427.190
24.36000 433.980
24.40000 424.855
24.44000 403.101
24.48000 387.918
24.52000 405.011
24.56000 429.503
24.60000 412.673
24.64000 407.147
24.68000 420.994
24.72000 406.379
24.76000 417.757
24.80000 413.439
24.84000 409.698
24.88000 413.900
24.92000 396.843
24.96000 425.116
25.00000 387.683
25.04000 392.510
25.08000 412.837
25.12000 398.477
25.16000 407.349
25.20000 398.169
25.24000 397.606
25.28000 405.384
25.32000 403.692
25.36000 375.697
25.40000 396.810
25.44000 384.802
25.48000 393.385
25.52000 398.711
25.56000 394.800
25.60000 385.419
25.64000 405.546
25.68000 397.025
25.72000 404.132
25.76000 400.333
25.80000 396.013
25.84000 396.615
25.88000 386.670
25.92000 392.734
25.96000 391.815
26.00000 381.340
26.04000 382.611
26.08000 389.242
26.12000 358.680
26.16000 377.176
26.20000 386.956
26.24000 373.796
26.28000 375.421
26.32000 361.560
26.36000 386.100
26.40000 401.079
26.44000 379.107
26.48000 376.006
26.52000 376.299
26.56000 389.084
26.60000 379.181
26.64000 377.728
26.68000 369.793
26.72000 381.479
26.76000 365.383
26.80000 366.526
26.84000 373.170
26.88000 382.961
26.92000 361.937
26.96000 377.026
27.00000 368.648
27.04000 379.754
27.08000 376.239
27.12000 367.923
27.16000 376.357
27.20000 376.636
27.24000 352.959
27.28000 369.071
27.32000 362.683
27.36000 372.163
27.40000 364.837
27.44000 364.870
27.48000 378.494
27.52000 379.479
27.56000 387.789
27.60000 376.965
27.64000 358.772
27.68000 345.991
27.72000 375.513
27.76000 360.591
27.80000 354.070
27.84000 365.226
27.88000 357.310
27.92000 353.892
27.96000 362.706
28.00000 360.642
28.04000 367.935
28.08000 366.396
28.12000 360.522
28.16000 347.281
28.20000 358.089
28.24000 358.326
28.28000 352.275
28.32000 354.452
28.36000 365.494
28.40000 363.029
28.44000 357.136
28.48000 358.728
28.52000 345.359
28.56000 360.981
28.60000 346.806
28.64000 358.863
28.68000 351.553
28.72000 359.234
28.76000 343.937
28.80000 339.737
28.84000 357.522
28.88000 350.662
28.92000 355.288
28.96000 350.789
29.00000 347.831
29.04000 352.398
29.08000 349.876
29.12000 350.085
29.16000 338.523
29.20000 349.699
29.24000 353.070
29.28000 351.616
29.32000 344.195
29.36000 336.404
29.40000 350.561
29.44000 351.670
29.48000 350.241
29.52000 350.189
29.56000 350.151
29.60000 357.587
29.64000 343.259
29.68000 377.115
29.72000 365.778
29.76000 356.784
29.80000 363.915
29.84000 377.765
29.88000 371.948
29.92000 365.863
29.96000 377.990
30.00000 371.814
30.04000 380.934
30.08000 381.022
30.12000 368.861
30.16000 366.853
30.20000 384.959
30.24000 369.527
30.28000 377.858
30.32000 364.743
30.36000 365.474
30.40000 359.637
30.44000 369.183
30.48000 371.566
30.52000 365.527
30.56000 370.305
30.60000 362.259
30.64000 364.636
30.68000 354.951
30.72000 376.159
30.76000 370.898
30.80000 392.802
30.84000 382.093
30.88000 377.789
30.92000 404.306
30.96000 433.140
31.00000 447.575
31.04000 466.140
31.08000 516.364
31.12000 570.906
31.16000 680.063
31.20000 780.638
31.24000 899.588
31.28000 1036.693
31.32000 1141.056
31.36000 1178.527
31.40000 1216.880
31.44000 1138.804
31.48000 1082.908
31.52000 997.179
31.56000 857.837
31.60000 733.604
31.64000 655.108
31.68000 556.762
31.72000 496.688
31.76000 432.875
31.80000 422.394
31.84000 397.533
31.88000 393.272
31.92000 382.445
31.96000 356.411
32.00000 346.503
32.04000 357.290
32.08000 351.903
32.12000 348.747
32.16000 350.383
32.20000 349.128
32.24000 355.367
32.28000 347.750
32.32000 340.076
32.36000 332.687
32.40000 325.088
32.44000 314.559
32.48000 325.953
32.52000 318.176
32.56000 315.607
32.60000 312.113
32.64000 324.297
32.68000 304.707
32.72000 312.834
32.76000 298.949
32.80000 322.141
32.84000 399.629
32.88000 441.069
32.92000 495.689
32.96000 535.650
33.00000 507.598
33.04000 510.140
33.08000 426.773
33.12000 389.351
33.16000 326.475
33.20000 301.823
33.24000 303.811
33.28000 311.480
33.32000 305.513
33.36000 297.197
33.40000 289.984
33.44000 306.231
33.48000 301.189
33.52000 290.006
33.56000 296.924
33.60000 288.656
33.64000 298.030
33.68000 286.532
33.72000 307.267
33.76000 287.065
33.80000 303.641
33.84000 298.359
33.88000 299.878
33.92000 316.448
33.96000 296.120
34.00000 299.144
34.04000 315.099
34.08000 335.268
34.12000 341.477
34.16000 328.525
34.20000 335.660
34.24000 327.348
34.28000 320.486
34.32000 347.187
34.36000 321.853
34.40000 330.822
34.44000 336.952
34.48000 329.968
34.52000 311.634
34.56000 329.583
34.60000 317.068
34.64000 308.456
34.68000 309.449
34.72000 298.655
34.76000 317.934
34.80000 281.285
34.84000 284.735
34.88000 292.547
34.92000 280.144
34.96000 274.351
35.00000 261.323
35.04000 271.634
35.08000 274.704
35.12000 268.372
35.16000 280.621
35.20000 273.450
35.24000 276.010
35.28000 273.155
35.32000 263.724
35.36000 272.397
35.40000 254.610
35.44000 262.052
35.48000 264.069
35.52000 266.193
35.56000 260.639
35.60000 260.216
35.64000 259.717
35.68000 263.442
35.72000 252.277
35.76000 266.051
35.80000 260.252
35.84000 264.098
35.88000 250.393
35.92000 268.411
35.96000 259.259
36.00000 257.159
36.04000 256.669
36.08000 270.321
36.12000 261.020
36.16000 254.840
36.20000 253.491
36.24000 269.012
36.28000 252.598
36.32000 261.786
36.36000 259.709
36.40000 254.741
36.44000 250.902
36.48000 247.864
36.52000 257.978
36.56000 256.364
36.60000 254.864
36.64000 256.257
36.68000 254.809
36.72000 259.865
36.76000 253.267
36.80000 256.569
36.84000 258.029
36.88000 263.636
36.92000 246.151
36.96000 288.571
37.00000 277.956
37.04000 265.050
37.08000 272.315
37.12000 255.011
37.16000 261.895
37.20000 256.334
37.24000 273.873
37.28000 254.259
37.32000 276.020
37.36000 252.753
37.40000 235.239
37.44000 247.168
37.48000 238.404
37.52000 248.222
37.56000 233.200
37.60000 247.824
37.64000 250.244
37.68000 247.516
37.72000 253.687
37.76000 254.845
37.80000 241.294
37.84000 252.966
37.88000 248.905
37.92000 251.441
37.96000 244.231
38.00000 251.232
38.04000 255.522
38.08000 253.814
38.12000 253.958
38.16000 260.779
38.20000 262.296
38.24000 260.417
38.28000 257.274
38.32000 286.151
38.36000 290.039
38.40000 313.367
38.44000 363.562
38.48000 421.279
38.52000 486.867
38.56000 592.603
38.60000 679.965
38.64000 804.250
38.68000 883.577
38.72000 928.001
38.76000 909.034
38.80000 864.513
38.84000 751.081
38.88000 666.276
38.92000 548.557
38.96000 438.141
39.00000 363.807
39.04000 323.728
39.08000 285.994
39.12000 267.773
39.16000 262.169
39.20000 256.146
39.24000 233.486
39.28000 248.076
39.32000 233.840
39.36000 230.516
39.40000 242.904
39.44000 236.998
39.48000 226.795
39.52000 257.796
39.56000 228.019
39.60000 244.898
39.64000 228.673
39.68000 225.880
39.72000 233.540
39.76000 224.356
39.80000 240.598
39.84000 238.538
39.88000 218.198
39.92000 224.036
39.96000 232.851
40.00000 222.498
40.04000 223.411
40.08000 233.029
40.12000 226.949
40.16000 222.858
40.20000 227.526
40.24000 224.759
40.28000 212.631
40.32000 212.056
40.36000 223.070
40.40000 205.950
40.44000 217.693
40.48000 229.526
40.52000 223.654
40.56000 209.994
40.60000 229.641
40.64000 208.530
40.68000 217.158
40.72000 210.340
40.76000 210.635
40.80000 202.579
40.84000 203.199
40.88000 204.322
40.92000 217.553
40.96000 205.136
41.00000 206.218
41.04000 208.247
41.08000 206.492
41.12000 203.815
41.16000 195.750
41.20000 202.407
41.24000 212.242
41.28000 200.043
41.32000 209.347
41.36000 208.924
41.40000 211.309
41.44000 212.520
41.48000 193.616
41.52000 206.605
41.56000 201.643
41.60000 200.723
41.64000 200.352
41.68000 209.711
41.72000 203.967
41.76000 208.730
41.80000 208.861
41.84000 202.112
41.88000 206.752
41.92000 210.509
41.96000 214.815
42.00000 203.450
42.04000 211.471
42.08000 207.785
42.12000 206.808
42.16000 210.748
42.20000 217.551
42.24000 209.727
42.28000 217.138
42.32000 208.517
42.36000 215.287
42.40000 209.801
42.44000 237.024
42.48000 211.404
42.52000 208.249
42.56000 212.487
42.60000 206.909
42.64000 226.495
42.68000 211.783
42.72000 205.673
42.76000 194.821
42.80000 211.614
42.84000 211.993
42.88000 208.272
42.92000 205.066
42.96000 198.851
43.00000 204.809
43.04000 199.109
43.08000 187.691
43.12000 201.603
43.16000 192.293
43.20000 198.119
43.24000 191.271
43.28000 183.124
43.32000 194.076
43.36000 196.731
43.40000 185.191
43.44000 190.577
43.48000 182.973
43.52000 196.726
43.56000 193.185
43.60000 192.621
43.64000 196.641
43.68000 184.154
43.72000 197.756
43.76000 203.914
43.80000 186.734
43.84000 185.897
43.88000 191.668
43.92000 191.049
43.96000 193.055
44.00000 189.845
44.04000 184.091
44.08000 190.380
44.12000 186.527
44.16000 197.686
44.20000 186.926
44.24000 192.390
44.28000 193.890
44.32000 204.489
44.36000 188.923
44.40000 201.605
44.44000 202.668
44.48000 203.773
44.52000 199.968
44.56000 202.029
44.60000 216.859
44.64000 214.085
44.68000 210.880
44.72000 222.435
44.76000 226.354
44.80000 226.659
44.84000 223.984
44.88000 228.508
44.92000 220.577
44.96000 238.877
45.00000 227.696
45.04000 241.050
45.08000 221.489
45.12000 231.810
45.16000 224.595
45.20000 238.374
45.24000 222.407
45.28000 216.350
45.32000 210.488
45.36000 209.823
45.40000 218.630
45.44000 210.674
45.48000 208.586
45.52000 211.694
45.56000 202.318
45.60000 208.432
45.64000 199.459
45.68000 193.668
45.72000 194.391
45.76000 198.567
45.80000 194.487
45.84000 183.222
45.88000 187.549
45.92000 179.836
45.96000 186.633
46.00000 179.667
46.04000 186.479
46.08000 163.129
46.12000 175.999
46.16000 180.762
46.20000 173.492
46.24000 180.736
46.28000 170.212
46.32000 175.752
46.36000 180.637
46.40000 176.528
46.44000 169.333
46.48000 171.393
46.52000 176.100
46.56000 167.408
46.60000 176.074
46.64000 161.951
46.68000 170.022
46.72000 180.400
46.76000 171.559
46.80000 169.071
46.84000 174.522
46.88000 184.277
46.92000 177.567
46.96000 163.497
47.00000 161.768
47.04000 175.320
47.08000 165.419
47.12000 166.442
47.16000 173.896
47.20000 166.345
47.24000 171.202
47.28000 170.806
47.32000 166.743
47.36000 172.489
47.40000 170.353
47.44000 167.570
47.48000 166.696
47.52000 159.899
47.56000 161.516
47.60000 159.979
47.64000 155.828
47.68000 150.108
47.72000 157.810
47.76000 160.151
47.80000 150.880
47.84000 158.438
47.88000 153.901
47.92000 155.395
47.96000 166.020
48.00000 152.232
48.04000 159.907
48.08000 157.509
48.12000 162.961
48.16000 146.225
48.20000 155.609
48.24000 164.611
48.28000 146.573
48.32000 148.474
48.36000 171.115
48.40000 147.834
48.44000 164.734
48.48000 155.741
48.52000 154.379
48.56000 156.018
48.60000 163.482
48.64000 166.106
48.68000 169.099
48.72000 152.471
48.76000 159.301
48.80000 159.862
48.84000 161.063
48.88000 146.382
48.92000 151.860
48.96000 148.615
49.00000 158.410
49.04000 150.400
49.08000 148.989
49.12000 153.550
49.16000 150.231
49.20000 151.657
49.24000 151.246
49.28000 156.176
49.32000 150.295
49.36000 150.131
49.40000 166.623
49.44000 153.535
49.48000 144.559
49.52000 132.426
49.56000 148.097
49.60000 143.617
49.64000 155.025
49.68000 139.613
49.72000 143.304
49.76000 143.408
49.80000 153.740
49.84000 149.039
49.88000 145.118
49.92000 168.236
49.96000 144.307
50.00000 151.000
50.04000 150.551
50.08000 151.646
50.12000 148.435
50.16000 158.107
50.20000 153.522
50.24000 154.186
50.28000 151.300
50.32000 146.349
50.36000 154.082
50.40000 152.154
50.44000 154.681
50.48000 160.547
50.52000 163.422
50.56000 161.521
50.60000 159.469
50.64000 150.891
50.68000 166.804
50.72000 162.941
50.76000 146.330
50.80000 151.167
50.84000 150.380
50.88000 149.947
50.92000 148.078
50.96000 160.906
51.00000 159.476
51.04000 139.584
51.08000 154.779
51.12000 148.232
51.16000 165.662
51.20000 151.984
51.24000 153.057
51.28000 147.082
51.32000 148.249
51.36000 145.805
51.40000 137.600
51.44000 146.812
51.48000 137.374
51.52000 129.099
51.56000 130.722
51.60000 147.538
51.64000 145.357
51.68000 143.697
51.72000 141.713
51.76000 150.935
51.80000 135.553
51.84000 136.164
51.88000 143.320
51.92000 130.954
51.96000 139.887
52.00000 131.729
52.04000 142.537
52.08000 148.289
52.12000 142.505
52.16000 143.382
52.20000 128.674
52.24000 141.236
52.28000 141.607
52.32000 137.323
52.36000 144.511
52.40000 142.517
52.44000 141.887
52.48000 138.314
52.52000 129.021
52.56000 139.685
52.60000 132.463
52.64000 140.150
52.68000 131.269
52.72000 142.311
52.76000 141.601
52.80000 135.702
52.84000 127.806
52.88000 139.717
52.92000 138.526
52.96000 148.141
53.00000 147.694
53.04000 150.146
53.08000 142.996
53.12000 155.550
53.16000 143.467
53.20000 138.695
53.24000 155.150
53.28000 149.011
53.32000 153.021
53.36000 143.945
53.40000 161.192
53.44000 148.333
53.48000 157.048
53.52000 149.911
53.56000 137.203
53.60000 141.020
53.64000 146.448
53.68000 145.347
53.72000 138.825
53.76000 145.618
53.80000 141.055
53.84000 137.540
53.88000 130.117
53.92000 137.187
53.96000 144.045
54.00000 134.405
54.04000 139.711
54.08000 136.792
54.12000 133.400
54.16000 139.462
54.20000 133.602
54.24000 134.027
54.28000 128.007
54.32000 140.519
54.36000 131.445
54.40000 135.319
54.44000 133.135
54.48000 137.994
54.52000 146.358
54.56000 131.827
54.60000 129.204
54.64000 139.139
54.68000 142.838
54.72000 134.427
54.76000 141.257
54.80000 143.672
54.84000 141.527
54.88000 137.443
54.92000 132.607
54.96000 146.264
55.00000 147.605
55.04000 136.452
55.08000 141.008
55.12000 142.342
55.16000 145.995
55.20000 156.917
55.24000 153.244
55.28000 165.646
55.32000 163.048
55.36000 155.546
55.40000 170.752
55.44000 168.999
55.48000 184.377
55.52000 197.818
55.56000 213.268
55.60000 221.350
55.64000 260.982
55.68000 303.326
55.72000 329.775
55.76000 359.458
55.80000 423.022
55.84000 463.354
55.88000 479.670
55.92000 517.787
55.96000 531.749
56.00000 511.385
56.04000 487.664
56.08000 456.239
56.12000 425.747
56.16000 382.880
56.20000 340.198
56.24000 284.892
56.28000 257.319
56.32000 240.679
56.36000 195.284
56.40000 170.523
56.44000 183.121
56.48000 167.750
56.52000 157.570
56.56000 145.152
56.60000 152.552
56.64000 154.554
56.68000 133.574
56.72000 137.623
56.76000 137.111
56.80000 133.361
56.84000 126.220
56.88000 135.791
56.92000 130.663
56.96000 134.909
57.00000 122.215
57.04000 123.876
57.08000 134.199
57.12000 132.223
57.16000 124.952
57.20000 132.884
57.24000 131.806
57.28000 132.172
57.32000 131.533
57.36000 129.106
57.40000 124.885
57.44000 124.521
57.48000 119.032
57.52000 133.616
57.56000 130.788
57.60000 131.108
57.64000 138.419
57.68000 132.167
57.72000 127.764
57.76000 128.868
57.80000 128.263
57.84000 127.867
57.88000 122.044
57.92000 125.461
57.96000 120.023
58.00000 126.768
58.04000 127.040
58.08000 123.477
58.12000 116.045
58.16000 122.376
58.20000 116.934
58.24000 125.758
58.28000 120.309
58.32000 120.392
58.36000 125.119
58.40000 120.348
58.44000 120.274
58.48000 118.134
58.52000 119.612
58.56000 116.491
58.60000 123.508
58.64000 118.631
58.68000 118.375
58.72000 125.699
58.76000 119.028
58.80000 125.434
58.84000 112.737
58.88000 120.171
58.92000 123.200
58.96000 126.322
59.00000 110.302
59.04000 119.011
59.08000 122.360
59.12000 119.522
59.16000 118.319
59.20000 110.728
59.24000 128.408
59.28000 108.280
59.32000 119.469
59.36000 117.041
59.40000 119.995
59.44000 114.665
59.48000 121.755
59.52000 116.501
59.56000 116.057
59.60000 117.359
59.64000 104.854
59.68000 110.424
59.72000 114.989
59.76000 107.406
59.80000 116.152
59.84000 124.795
59.88000 109.692
59.92000 123.198
59.96000 108.982
60.00000 112.200
60.04000 114.059
60.08000 122.016
60.12000 113.518
60.16000 113.137
60.20000 124.120
60.24000 118.383
60.28000 136.450
60.32000 107.478
60.36000 113.801
60.40000 116.951
60.44000 115.496
60.48000 121.509
60.52000 124.992
60.56000 112.219
60.60000 119.209
60.64000 129.604
60.68000 117.972
60.72000 121.399
60.76000 121.538
60.80000 116.767
60.84000 121.580
60.88000 121.561
60.92000 105.345
60.96000 117.396
61.00000 122.811
61.04000 122.908
61.08000 119.889
61.12000 120.854
61.16000 130.068
61.20000 128.480
61.24000 126.314
61.28000 123.339
61.32000 118.592
61.36000 119.537
61.40000 130.884
61.44000 122.960
61.48000 132.827
61.52000 147.319
61.56000 193.566
61.60000 243.646
61.64000 274.979
61.68000 275.280
61.72000 299.349
61.76000 273.481
61.80000 211.809
61.84000 178.734
61.88000 136.411
61.92000 135.648
61.96000 130.143
62.00000 129.081
62.04000 116.781
62.08000 132.325
62.12000 123.134
62.16000 122.683
62.20000 126.289
62.24000 128.619
62.28000 124.123
62.32000 129.966
62.36000 130.494
62.40000 123.962
62.44000 131.192
62.48000 127.181
62.52000 128.236
62.56000 131.108
62.60000 127.908
62.64000 127.737
62.68000 126.697
62.72000 132.727
62.76000 136.840
62.80000 129.216
62.84000 132.182
62.88000 129.808
62.92000 130.036
62.96000 130.339
63.00000 126.644
63.04000 128.752
63.08000 141.570
63.12000 139.320
63.16000 128.412
63.20000 129.953
63.24000 129.787
63.28000 124.259
63.32000 124.954
63.36000 128.420
63.40000 142.497
63.44000 132.238
63.48000 138.833
63.52000 140.665
63.56000 139.502
63.60000 135.603
63.64000 142.479
63.68000 147.305
63.72000 137.498
63.76000 135.447
63.80000 143.219
63.84000 134.119
63.88000 134.708
63.92000 140.428
63.96000 148.053
64.00000 147.441
64.04000 143.047
64.08000 147.252
64.12000 143.597
64.16000 143.173
64.20000 154.025
64.24000 145.616
64.28000 155.809
64.32000 149.768
64.36000 157.762
64.40000 159.953
64.44000 161.587
64.48000 158.138
64.52000 157.398
64.56000 159.908
64.60000 155.657
64.64000 161.170
64.68000 166.828
64.72000 161.896
64.76000 168.547
64.80000 177.118
64.84000 166.652
64.88000 170.006
64.92000 171.390
64.96000 176.447
65.00000 186.866
65.04000 180.973
65.08000 185.694
65.12000 197.309
65.16000 194.973
65.20000 212.080
65.24000 233.722
65.28000 221.192
65.32000 236.177
65.36000 237.476
65.40000 252.978
65.44000 262.107
65.48000 301.602
65.52000 301.805
65.56000 324.658
65.60000 354.215
65.64000 428.355
65.68000 552.413
65.72000 877.547
65.76000 1341.484
65.80000 1777.151
65.84000 1898.653
65.88000 1954.594
65.92000 1837.232
65.96000 1510.147
66.00000 990.592
66.04000 661.761
66.08000 468.028
66.12000 411.967
66.16000 368.361
66.20000 358.003
66.24000 390.737
66.28000 444.874
66.32000 533.396
66.36000 611.935
66.40000 623.984
66.44000 604.328
66.48000 592.362
66.52000 523.033
66.56000 444.461
66.60000 377.924
66.64000 373.219
66.68000 352.336
66.72000 345.386
66.76000 357.632
66.80000 344.505
66.84000 342.819
66.88000 350.966
66.92000 356.838
66.96000 359.181
67.00000 370.208
67.04000 364.922
67.08000 366.184
67.12000 361.884
67.16000 379.286
67.20000 379.518
67.24000 388.535
67.28000 378.821
67.32000 399.092
67.36000 413.812
67.40000 423.049
67.44000 417.303
67.48000 414.992
67.52000 415.353
67.56000 418.073
67.60000 421.090
67.64000 428.374
67.68000 428.846
67.72000 447.446
67.76000 458.839
67.80000 473.084
67.84000 474.215
67.88000 453.056
67.92000 482.606
67.96000 488.860
68.00000 492.398
68.04000 515.811
68.08000 510.231
68.12000 518.817
68.16000 504.755
68.20000 546.693
68.24000 556.341
68.28000 554.755
68.32000 579.222
68.36000 604.008
68.40000 615.533
68.44000 635.865
68.48000 643.746
68.52000 705.919
68.56000 769.816
68.60000 845.287
68.64000 937.368
68.68000 1096.784
68.72000 1254.546
68.76000 1465.750
68.80000 1600.564
68.84000 1776.589
68.88000 2159.592
68.92000 3200.956
68.96000 8767.759
69.00000 20475.002
69.04000 32872.969
69.08000 39570.016
69.12000 42382.469
69.16000 45093.527
69.20000 45348.910
69.24000 36703.711
69.28000 26897.000
69.32000 21861.768
69.36000 20525.141
69.40000 17222.781
69.44000 10942.661
69.48000 4856.833
69.52000 2152.464
69.56000 1344.802
69.60000 1073.572
69.64000 902.065
69.68000 814.010
69.72000 714.998
69.76000 670.008
69.80000 626.455
69.84000 616.894
69.88000 570.254
69.92000 538.497
69.96000 522.353
70.00000 503.125