File: XRD/XRD/07-10-2025 Dep 6/XY Data/BTO_Mapping_Theta2Theta_07-10-2025_001_25_-20-000_34-641.xy
20.00000 476.575
20.04000 470.844
20.08000 486.382
20.12000 455.695
20.16000 470.626
20.20000 452.018
20.24000 466.838
20.28000 460.739
20.32000 467.037
20.36000 459.755
20.40000 462.908
20.44000 469.656
20.48000 462.470
20.52000 450.722
20.56000 456.982
20.60000 458.654
20.64000 466.112
20.68000 464.398
20.72000 483.685
20.76000 464.727
20.80000 467.380
20.84000 459.319
20.88000 462.406
20.92000 476.790
20.96000 462.740
21.00000 451.921
21.04000 458.966
21.08000 453.104
21.12000 450.692
21.16000 458.591
21.20000 461.794
21.24000 457.027
21.28000 448.670
21.32000 464.824
21.36000 465.896
21.40000 470.966
21.44000 455.453
21.48000 456.299
21.52000 460.010
21.56000 451.198
21.60000 452.658
21.64000 479.559
21.68000 449.099
21.72000 462.353
21.76000 465.685
21.80000 475.983
21.84000 480.773
21.88000 492.729
21.92000 516.025
21.96000 543.917
22.00000 555.868
22.04000 551.086
22.08000 580.787
22.12000 547.820
22.16000 546.835
22.20000 542.929
22.24000 524.380
22.28000 523.053
22.32000 492.424
22.36000 482.714
22.40000 468.233
22.44000 477.762
22.48000 447.566
22.52000 443.269
22.56000 452.857
22.60000 451.627
22.64000 430.978
22.68000 420.082
22.72000 433.763
22.76000 413.549
22.80000 442.947
22.84000 444.164
22.88000 437.023
22.92000 452.859
22.96000 452.528
23.00000 424.080
23.04000 431.420
23.08000 440.341
23.12000 430.133
23.16000 433.652
23.20000 428.851
23.24000 424.709
23.28000 416.584
23.32000 424.914
23.36000 429.973
23.40000 416.087
23.44000 438.725
23.48000 439.471
23.52000 436.777
23.56000 423.001
23.60000 434.010
23.64000 442.094
23.68000 429.883
23.72000 438.820
23.76000 454.841
23.80000 446.937
23.84000 464.494
23.88000 453.379
23.92000 469.186
23.96000 487.704
24.00000 457.472
24.04000 474.364
24.08000 465.423
24.12000 472.167
24.16000 435.229
24.20000 443.590
24.24000 431.274
24.28000 428.135
24.32000 416.716
24.36000 421.244
24.40000 422.082
24.44000 425.034
24.48000 413.494
24.52000 420.815
24.56000 400.541
24.60000 400.425
24.64000 391.326
24.68000 380.716
24.72000 405.381
24.76000 402.469
24.80000 393.318
24.84000 414.940
24.88000 406.121
24.92000 394.855
24.96000 413.954
25.00000 393.866
25.04000 393.387
25.08000 397.335
25.12000 385.443
25.16000 401.010
25.20000 402.584
25.24000 398.462
25.28000 400.965
25.32000 380.635
25.36000 401.139
25.40000 380.736
25.44000 386.953
25.48000 388.806
25.52000 390.687
25.56000 410.645
25.60000 390.943
25.64000 388.952
25.68000 397.802
25.72000 376.999
25.76000 389.671
25.80000 366.549
25.84000 383.441
25.88000 399.287
25.92000 381.603
25.96000 366.482
26.00000 380.413
26.04000 382.154
26.08000 379.359
26.12000 391.600
26.16000 387.638
26.20000 390.727
26.24000 389.667
26.28000 381.152
26.32000 373.057
26.36000 365.789
26.40000 376.096
26.44000 364.363
26.48000 375.830
26.52000 368.113
26.56000 371.148
26.60000 367.875
26.64000 371.152
26.68000 374.305
26.72000 381.629
26.76000 375.894
26.80000 374.164
26.84000 377.179
26.88000 378.375
26.92000 372.640
26.96000 375.921
27.00000 370.572
27.04000 364.908
27.08000 368.435
27.12000 368.510
27.16000 345.044
27.20000 366.134
27.24000 364.553
27.28000 375.586
27.32000 366.671
27.36000 388.947
27.40000 367.902
27.44000 375.270
27.48000 359.711
27.52000 367.661
27.56000 362.432
27.60000 362.120
27.64000 357.302
27.68000 382.066
27.72000 378.720
27.76000 363.977
27.80000 362.490
27.84000 359.047
27.88000 371.166
27.92000 377.969
27.96000 374.929
28.00000 355.029
28.04000 356.073
28.08000 349.676
28.12000 362.806
28.16000 356.130
28.20000 357.067
28.24000 360.068
28.28000 347.207
28.32000 371.992
28.36000 352.830
28.40000 372.745
28.44000 362.226
28.48000 351.651
28.52000 350.940
28.56000 365.926
28.60000 360.064
28.64000 344.877
28.68000 350.429
28.72000 362.504
28.76000 356.285
28.80000 350.997
28.84000 337.883
28.88000 345.012
28.92000 348.571
28.96000 337.650
29.00000 344.981
29.04000 339.134
29.08000 338.719
29.12000 343.239
29.16000 330.324
29.20000 347.709
29.24000 347.441
29.28000 337.327
29.32000 352.470
29.36000 344.362
29.40000 345.241
29.44000 331.144
29.48000 338.192
29.52000 357.170
29.56000 353.541
29.60000 343.359
29.64000 350.857
29.68000 351.070
29.72000 352.287
29.76000 363.889
29.80000 349.305
29.84000 357.490
29.88000 349.135
29.92000 366.607
29.96000 376.491
30.00000 380.365
30.04000 376.624
30.08000 360.660
30.12000 378.573
30.16000 378.896
30.20000 360.391
30.24000 361.690
30.28000 370.394
30.32000 361.079
30.36000 370.687
30.40000 359.119
30.44000 361.445
30.48000 368.865
30.52000 341.385
30.56000 339.424
30.60000 339.984
30.64000 356.274
30.68000 336.342
30.72000 369.444
30.76000 350.801
30.80000 374.121
30.84000 365.544
30.88000 374.319
30.92000 387.449
30.96000 414.072
31.00000 414.367
31.04000 446.804
31.08000 488.649
31.12000 561.380
31.16000 626.296
31.20000 755.055
31.24000 847.100
31.28000 988.554
31.32000 1092.214
31.36000 1173.806
31.40000 1210.263
31.44000 1171.779
31.48000 1091.072
31.52000 966.988
31.56000 865.596
31.60000 730.179
31.64000 622.935
31.68000 521.910
31.72000 473.461
31.76000 454.650
31.80000 421.485
31.84000 390.119
31.88000 378.764
31.92000 372.251
31.96000 351.791
32.00000 349.462
32.04000 338.060
32.08000 327.931
32.12000 322.776
32.16000 333.307
32.20000 336.153
32.24000 342.926
32.28000 340.178
32.32000 331.280
32.36000 337.749
32.40000 337.293
32.44000 312.819
32.48000 328.792
32.52000 329.304
32.56000 323.865
32.60000 313.082
32.64000 319.427
32.68000 324.628
32.72000 314.626
32.76000 325.022
32.80000 336.317
32.84000 397.284
32.88000 436.879
32.92000 505.134
32.96000 517.485
33.00000 538.908
33.04000 496.168
33.08000 436.355
33.12000 368.337
33.16000 328.236
33.20000 294.023
33.24000 298.468
33.28000 298.837
33.32000 294.459
33.36000 295.409
33.40000 298.804
33.44000 297.690
33.48000 283.287
33.52000 287.110
33.56000 289.029
33.60000 289.961
33.64000 280.230
33.68000 287.349
33.72000 289.374
33.76000 286.737
33.80000 309.651
33.84000 312.413
33.88000 307.556
33.92000 294.952
33.96000 302.194
34.00000 293.046
34.04000 301.223
34.08000 313.164
34.12000 308.758
34.16000 307.578
34.20000 321.625
34.24000 315.784
34.28000 315.903
34.32000 325.551
34.36000 328.992
34.40000 314.263
34.44000 304.367
34.48000 305.445
34.52000 292.059
34.56000 298.744
34.60000 305.167
34.64000 290.902
34.68000 292.384
34.72000 293.933
34.76000 295.831
34.80000 284.884
34.84000 272.509
34.88000 277.759
34.92000 288.100
34.96000 268.377
35.00000 275.505
35.04000 263.803
35.08000 275.613
35.12000 270.654
35.16000 253.577
35.20000 261.762
35.24000 276.415
35.28000 268.051
35.32000 261.482
35.36000 277.948
35.40000 265.636
35.44000 263.487
35.48000 269.573
35.52000 261.065
35.56000 256.776
35.60000 258.597
35.64000 258.741
35.68000 264.058
35.72000 267.528
35.76000 250.033
35.80000 261.172
35.84000 257.244
35.88000 259.385
35.92000 263.895
35.96000 258.998
36.00000 267.373
36.04000 264.970
36.08000 263.660
36.12000 256.465
36.16000 256.671
36.20000 241.314
36.24000 244.315
36.28000 253.211
36.32000 246.117
36.36000 248.802
36.40000 256.156
36.44000 256.871
36.48000 260.337
36.52000 251.062
36.56000 248.185
36.60000 246.618
36.64000 256.370
36.68000 261.240
36.72000 249.241
36.76000 257.735
36.80000 257.542
36.84000 263.901
36.88000 262.882
36.92000 273.624
36.96000 255.695
37.00000 261.365
37.04000 240.775
37.08000 262.497
37.12000 264.622
37.16000 276.481
37.20000 265.398
37.24000 273.536
37.28000 263.905
37.32000 252.399
37.36000 266.913
37.40000 258.347
37.44000 242.687
37.48000 245.911
37.52000 239.243
37.56000 255.726
37.60000 249.082
37.64000 254.853
37.68000 262.298
37.72000 242.750
37.76000 239.663
37.80000 244.461
37.84000 247.695
37.88000 247.057
37.92000 240.611
37.96000 263.459
38.00000 250.196
38.04000 257.133
38.08000 245.469
38.12000 244.409
38.16000 242.853
38.20000 257.726
38.24000 252.618
38.28000 262.770
38.32000 258.844
38.36000 291.662
38.40000 313.882
38.44000 340.592
38.48000 391.338
38.52000 463.475
38.56000 544.831
38.60000 628.078
38.64000 763.621
38.68000 849.781
38.72000 909.320
38.76000 904.150
38.80000 855.008
38.84000 776.204
38.88000 652.583
38.92000 532.505
38.96000 443.715
39.00000 362.252
39.04000 317.967
39.08000 284.535
39.12000 255.776
39.16000 257.612
39.20000 246.356
39.24000 220.142
39.28000 229.044
39.32000 235.166
39.36000 224.766
39.40000 226.084
39.44000 228.325
39.48000 229.365
39.52000 221.282
39.56000 229.127
39.60000 221.573
39.64000 230.789
39.68000 227.660
39.72000 237.663
39.76000 224.143
39.80000 226.671
39.84000 236.994
39.88000 227.850
39.92000 213.603
39.96000 218.745
40.00000 231.679
40.04000 222.773
40.08000 223.831
40.12000 226.171
40.16000 214.137
40.20000 217.746
40.24000 207.983
40.28000 212.059
40.32000 233.354
40.36000 220.227
40.40000 216.067
40.44000 217.962
40.48000 213.452
40.52000 207.176
40.56000 212.196
40.60000 221.021
40.64000 217.830
40.68000 202.630
40.72000 208.792
40.76000 206.567
40.80000 219.724
40.84000 201.980
40.88000 209.267
40.92000 216.332
40.96000 219.872
41.00000 197.449
41.04000 199.953
41.08000 207.173
41.12000 193.451
41.16000 207.538
41.20000 188.046
41.24000 208.440
41.28000 202.665
41.32000 210.834
41.36000 214.961
41.40000 222.770
41.44000 217.540
41.48000 213.391
41.52000 179.727
41.56000 202.461
41.60000 213.911
41.64000 205.118
41.68000 208.044
41.72000 197.759
41.76000 201.416
41.80000 200.957
41.84000 193.832
41.88000 211.271
41.92000 203.909
41.96000 206.905
42.00000 205.119
42.04000 214.293
42.08000 200.018
42.12000 205.900
42.16000 204.172
42.20000 204.955
42.24000 208.275
42.28000 209.740
42.32000 202.800
42.36000 204.818
42.40000 198.058
42.44000 208.462
42.48000 203.060
42.52000 211.656
42.56000 191.022
42.60000 208.425
42.64000 201.026
42.68000 200.778
42.72000 198.091
42.76000 208.470
42.80000 196.165
42.84000 194.508
42.88000 205.467
42.92000 192.024
42.96000 194.059
43.00000 201.817
43.04000 192.755
43.08000 196.367
43.12000 203.587
43.16000 200.880
43.20000 200.152
43.24000 199.395
43.28000 204.091
43.32000 193.903
43.36000 195.966
43.40000 201.538
43.44000 208.014
43.48000 206.018
43.52000 195.832
43.56000 197.472
43.60000 199.714
43.64000 190.998
43.68000 182.930
43.72000 200.589
43.76000 190.515
43.80000 188.247
43.84000 185.363
43.88000 197.344
43.92000 193.386
43.96000 186.296
44.00000 183.509
44.04000 189.844
44.08000 187.087
44.12000 189.046
44.16000 198.421
44.20000 188.682
44.24000 202.732
44.28000 192.617
44.32000 205.450
44.36000 201.292
44.40000 202.866
44.44000 203.447
44.48000 198.760
44.52000 194.343
44.56000 212.901
44.60000 199.829
44.64000 200.589
44.68000 220.393
44.72000 220.556
44.76000 234.802
44.80000 237.246
44.84000 238.368
44.88000 236.291
44.92000 250.566
44.96000 253.150
45.00000 266.618
45.04000 270.999
45.08000 276.526
45.12000 274.504
45.16000 263.370
45.20000 259.292
45.24000 245.102
45.28000 255.024
45.32000 233.198
45.36000 232.924
45.40000 221.829
45.44000 215.140
45.48000 213.946
45.52000 221.142
45.56000 207.662
45.60000 198.743
45.64000 196.901
45.68000 213.576
45.72000 209.857
45.76000 190.069
45.80000 190.763
45.84000 180.267
45.88000 197.145
45.92000 177.978
45.96000 182.996
46.00000 174.602
46.04000 175.275
46.08000 178.801
46.12000 177.191
46.16000 184.856
46.20000 182.702
46.24000 177.389
46.28000 177.506
46.32000 179.238
46.36000 168.377
46.40000 176.343
46.44000 169.091
46.48000 168.931
46.52000 173.803
46.56000 174.048
46.60000 163.596
46.64000 180.836
46.68000 184.396
46.72000 172.778
46.76000 175.503
46.80000 176.067
46.84000 164.419
46.88000 170.788
46.92000 170.600
46.96000 161.390
47.00000 184.971
47.04000 168.203
47.08000 151.029
47.12000 169.505
47.16000 166.384
47.20000 173.344
47.24000 162.220
47.28000 167.051
47.32000 161.136
47.36000 171.207
47.40000 162.918
47.44000 154.417
47.48000 153.702
47.52000 154.664
47.56000 156.852
47.60000 175.172
47.64000 167.333
47.68000 152.408
47.72000 154.728
47.76000 153.166
47.80000 157.339
47.84000 164.096
47.88000 164.903
47.92000 163.993
47.96000 154.890
48.00000 153.813
48.04000 146.854
48.08000 146.348
48.12000 158.794
48.16000 152.455
48.20000 155.676
48.24000 157.859
48.28000 162.435
48.32000 155.516
48.36000 154.622
48.40000 145.964
48.44000 145.124
48.48000 156.487
48.52000 152.707
48.56000 163.303
48.60000 145.363
48.64000 151.709
48.68000 149.730
48.72000 159.623
48.76000 153.671
48.80000 154.828
48.84000 156.013
48.88000 156.934
48.92000 152.257
48.96000 154.940
49.00000 150.208
49.04000 155.474
49.08000 155.450
49.12000 149.868
49.16000 150.419
49.20000 157.147
49.24000 140.675
49.28000 149.222
49.32000 155.980
49.36000 162.506
49.40000 143.896
49.44000 142.807
49.48000 151.246
49.52000 144.811
49.56000 144.838
49.60000 151.882
49.64000 157.320
49.68000 145.109
49.72000 146.811
49.76000 150.201
49.80000 142.859
49.84000 156.059
49.88000 150.027
49.92000 137.435
49.96000 138.936
50.00000 153.611
50.04000 143.827
50.08000 144.523
50.12000 136.144
50.16000 155.229
50.20000 154.174
50.24000 141.014
50.28000 154.926
50.32000 157.438
50.36000 162.504
50.40000 147.006
50.44000 151.407
50.48000 155.135
50.52000 164.518
50.56000 165.479
50.60000 161.816
50.64000 174.255
50.68000 162.672
50.72000 160.643
50.76000 162.236
50.80000 156.342
50.84000 160.893
50.88000 168.026
50.92000 163.092
50.96000 150.333
51.00000 149.736
51.04000 165.504
51.08000 152.228
51.12000 152.225
51.16000 151.369
51.20000 147.285
51.24000 142.397
51.28000 145.588
51.32000 143.104
51.36000 141.371
51.40000 132.105
51.44000 134.387
51.48000 140.249
51.52000 135.284
51.56000 131.430
51.60000 146.117
51.64000 138.170
51.68000 145.525
51.72000 133.004
51.76000 141.751
51.80000 142.120
51.84000 144.721
51.88000 155.696
51.92000 139.054
51.96000 134.646
52.00000 132.565
52.04000 132.911
52.08000 129.560
52.12000 144.179
52.16000 137.691
52.20000 117.047
52.24000 134.916
52.28000 146.954
52.32000 135.267
52.36000 130.351
52.40000 133.502
52.44000 138.258
52.48000 140.291
52.52000 140.945
52.56000 137.493
52.60000 132.612
52.64000 142.182
52.68000 140.068
52.72000 134.417
52.76000 144.348
52.80000 136.580
52.84000 138.183
52.88000 129.879
52.92000 144.245
52.96000 135.894
53.00000 141.363
53.04000 142.899
53.08000 133.947
53.12000 136.861
53.16000 143.811
53.20000 147.740
53.24000 148.117
53.28000 137.541
53.32000 153.807
53.36000 147.881
53.40000 152.242
53.44000 154.827
53.48000 141.357
53.52000 141.445
53.56000 147.383
53.60000 146.718
53.64000 141.082
53.68000 141.839
53.72000 140.668
53.76000 138.305
53.80000 139.969
53.84000 138.052
53.88000 131.063
53.92000 135.301
53.96000 142.041
54.00000 138.433
54.04000 138.297
54.08000 140.399
54.12000 137.016
54.16000 142.632
54.20000 131.012
54.24000 133.100
54.28000 146.020
54.32000 130.885
54.36000 143.318
54.40000 142.511
54.44000 136.699
54.48000 133.446
54.52000 136.378
54.56000 127.832
54.60000 134.889
54.64000 136.415
54.68000 143.750
54.72000 143.200
54.76000 132.126
54.80000 130.361
54.84000 134.817
54.88000 138.493
54.92000 133.267
54.96000 136.759
55.00000 149.019
55.04000 140.411
55.08000 136.301
55.12000 140.451
55.16000 135.693
55.20000 146.420
55.24000 156.666
55.28000 144.148
55.32000 151.680
55.36000 152.787
55.40000 153.345
55.44000 155.101
55.48000 176.559
55.52000 191.104
55.56000 200.410
55.60000 219.301
55.64000 237.318
55.68000 284.841
55.72000 321.050
55.76000 361.721
55.80000 410.519
55.84000 461.386
55.88000 510.013
55.92000 549.669
55.96000 576.245
56.00000 548.679
56.04000 550.550
56.08000 495.938
56.12000 440.023
56.16000 407.935
56.20000 354.501
56.24000 298.320
56.28000 262.148
56.32000 228.392
56.36000 208.526
56.40000 188.681
56.44000 168.644
56.48000 160.723
56.52000 156.742
56.56000 147.291
56.60000 145.089
56.64000 133.745
56.68000 135.772
56.72000 137.419
56.76000 138.362
56.80000 135.454
56.84000 132.898
56.88000 136.112
56.92000 132.033
56.96000 132.866
57.00000 125.763
57.04000 117.844
57.08000 133.552
57.12000 131.402
57.16000 120.331
57.20000 124.112
57.24000 116.332
57.28000 122.318
57.32000 126.809
57.36000 118.709
57.40000 127.897
57.44000 127.135
57.48000 118.836
57.52000 118.375
57.56000 129.661
57.60000 115.839
57.64000 114.340
57.68000 113.842
57.72000 126.645
57.76000 125.247
57.80000 124.083
57.84000 122.093
57.88000 126.254
57.92000 115.656
57.96000 127.303
58.00000 112.322
58.04000 119.522
58.08000 116.880
58.12000 118.968
58.16000 120.031
58.20000 112.422
58.24000 113.317
58.28000 122.140
58.32000 119.140
58.36000 110.621
58.40000 112.828
58.44000 111.248
58.48000 112.759
58.52000 126.379
58.56000 118.399
58.60000 112.959
58.64000 118.782
58.68000 110.659
58.72000 105.635
58.76000 114.268
58.80000 114.615
58.84000 125.863
58.88000 116.783
58.92000 114.970
58.96000 127.595
59.00000 115.305
59.04000 114.544
59.08000 120.623
59.12000 124.601
59.16000 118.937
59.20000 114.757
59.24000 108.252
59.28000 119.564
59.32000 111.054
59.36000 111.544
59.40000 109.614
59.44000 119.940
59.48000 111.547
59.52000 120.162
59.56000 119.636
59.60000 121.350
59.64000 119.827
59.68000 114.536
59.72000 112.052
59.76000 123.391
59.80000 123.320
59.84000 113.239
59.88000 114.875
59.92000 113.086
59.96000 113.032
60.00000 114.358
60.04000 113.471
60.08000 120.542
60.12000 104.610
60.16000 119.139
60.20000 120.205
60.24000 113.605
60.28000 118.332
60.32000 118.463
60.36000 114.308
60.40000 116.291
60.44000 115.225
60.48000 102.246
60.52000 118.210
60.56000 117.999
60.60000 114.066
60.64000 118.135
60.68000 114.368
60.72000 120.698
60.76000 113.807
60.80000 115.511
60.84000 123.587
60.88000 115.185
60.92000 117.673
60.96000 127.117
61.00000 118.880
61.04000 124.013
61.08000 111.235
61.12000 115.114
61.16000 111.446
61.20000 114.986
61.24000 111.673
61.28000 124.547
61.32000 121.489
61.36000 119.821
61.40000 126.712
61.44000 117.194
61.48000 127.559
61.52000 154.396
61.56000 209.253
61.60000 255.665
61.64000 277.196
61.68000 291.715
61.72000 288.969
61.76000 263.742
61.80000 215.858
61.84000 168.685
61.88000 138.399
61.92000 134.273
61.96000 136.464
62.00000 131.791
62.04000 130.703
62.08000 123.690
62.12000 126.488
62.16000 125.453
62.20000 119.138
62.24000 129.767
62.28000 129.718
62.32000 118.551
62.36000 123.490
62.40000 127.993
62.44000 133.762
62.48000 134.458
62.52000 122.319
62.56000 123.208
62.60000 121.778
62.64000 132.956
62.68000 142.213
62.72000 125.105
62.76000 125.206
62.80000 119.262
62.84000 125.403
62.88000 124.668
62.92000 126.981
62.96000 129.872
63.00000 127.791
63.04000 130.704
63.08000 131.224
63.12000 145.505
63.16000 131.586
63.20000 139.214
63.24000 128.383
63.28000 140.775
63.32000 133.146
63.36000 136.293
63.40000 128.765
63.44000 136.141
63.48000 132.640
63.52000 137.358
63.56000 130.726
63.60000 134.483
63.64000 131.877
63.68000 141.464
63.72000 131.290
63.76000 137.213
63.80000 134.119
63.84000 146.194
63.88000 135.053
63.92000 142.097
63.96000 142.392
64.00000 147.479
64.04000 131.704
64.08000 144.285
64.12000 144.879
64.16000 149.790
64.20000 149.044
64.24000 152.184
64.28000 146.944
64.32000 149.630
64.36000 152.588
64.40000 149.077
64.44000 158.901
64.48000 151.260
64.52000 171.443
64.56000 150.087
64.60000 156.668
64.64000 160.995
64.68000 173.993
64.72000 166.392
64.76000 172.149
64.80000 186.165
64.84000 173.247
64.88000 168.749
64.92000 174.575
64.96000 191.707
65.00000 188.947
65.04000 183.798
65.08000 184.627
65.12000 202.913
65.16000 196.278
65.20000 203.246
65.24000 232.650
65.28000 234.664
65.32000 228.795
65.36000 246.987
65.40000 252.885
65.44000 272.864
65.48000 292.504
65.52000 291.040
65.56000 322.171
65.60000 376.548
65.64000 440.941
65.68000 606.189
65.72000 950.719
65.76000 1419.642
65.80000 1831.768
65.84000 1939.489
65.88000 1953.456
65.92000 1825.008
65.96000 1489.657
66.00000 971.746
66.04000 621.470
66.08000 466.000
66.12000 404.100
66.16000 382.390
66.20000 350.174
66.24000 387.332
66.28000 465.845
66.32000 559.292
66.36000 592.563
66.40000 625.276
66.44000 616.318
66.48000 599.790
66.52000 521.198
66.56000 448.844
66.60000 386.795
66.64000 362.923
66.68000 362.624
66.72000 335.695
66.76000 345.279
66.80000 352.296
66.84000 357.393
66.88000 360.246
66.92000 373.510
66.96000 357.383
67.00000 373.763
67.04000 386.572
67.08000 370.185
67.12000 384.683
67.16000 372.207
67.20000 391.637
67.24000 376.905
67.28000 408.099
67.32000 396.349
67.36000 402.451
67.40000 394.222
67.44000 394.992
67.48000 406.308
67.52000 436.831
67.56000 420.232
67.60000 434.263
67.64000 449.750
67.68000 446.344
67.72000 462.188
67.76000 463.599
67.80000 455.707
67.84000 474.743
67.88000 487.987
67.92000 491.754
67.96000 475.692
68.00000 491.002
68.04000 499.561
68.08000 535.549
68.12000 520.676
68.16000 551.598
68.20000 560.481
68.24000 558.161
68.28000 556.123
68.32000 596.008
68.36000 602.692
68.40000 614.836
68.44000 639.894
68.48000 698.660
68.52000 685.252
68.56000 747.749
68.60000 848.224
68.64000 987.859
68.68000 1144.423
68.72000 1312.302
68.76000 1503.014
68.80000 1682.634
68.84000 1937.615
68.88000 2395.522
68.92000 3694.063
68.96000 10309.438
69.00000 22817.387
69.04000 34844.402
69.08000 40858.449
69.12000 43468.738
69.16000 46315.453
69.20000 45053.473
69.24000 35416.578
69.28000 26385.230
69.32000 21790.721
69.36000 20607.135
69.40000 16639.955
69.44000 9990.752
69.48000 4493.133
69.52000 2004.034
69.56000 1279.832
69.60000 1046.783
69.64000 915.882
69.68000 794.671
69.72000 733.229
69.76000 669.457
69.80000 619.944
69.84000 565.807
69.88000 566.442
69.92000 513.487
69.96000 529.658
70.00000 484.109