File: XRD/XRD/07-10-2025 Dep 6/XY Data/BTO_Mapping_Theta2Theta_07-10-2025_001_23_-10-000_17-321.xy
20.00000 460.477
20.04000 484.256
20.08000 476.597
20.12000 457.344
20.16000 465.715
20.20000 453.413
20.24000 455.423
20.28000 466.075
20.32000 472.605
20.36000 478.465
20.40000 459.755
20.44000 477.677
20.48000 471.575
20.52000 483.450
20.56000 457.066
20.60000 450.326
20.64000 464.897
20.68000 455.012
20.72000 449.977
20.76000 459.378
20.80000 471.317
20.84000 445.107
20.88000 460.000
20.92000 449.919
20.96000 442.877
21.00000 456.687
21.04000 440.381
21.08000 465.019
21.12000 460.083
21.16000 452.786
21.20000 469.305
21.24000 450.502
21.28000 452.574
21.32000 457.249
21.36000 470.053
21.40000 454.560
21.44000 457.181
21.48000 466.565
21.52000 457.006
21.56000 462.630
21.60000 446.639
21.64000 462.442
21.68000 470.390
21.72000 468.256
21.76000 454.786
21.80000 485.677
21.84000 475.600
21.88000 485.171
21.92000 493.946
21.96000 509.452
22.00000 521.087
22.04000 545.804
22.08000 547.135
22.12000 553.881
22.16000 528.996
22.20000 532.388
22.24000 539.261
22.28000 506.208
22.32000 509.335
22.36000 474.520
22.40000 476.778
22.44000 467.595
22.48000 466.415
22.52000 442.484
22.56000 438.681
22.60000 431.737
22.64000 429.066
22.68000 444.196
22.72000 428.626
22.76000 436.251
22.80000 461.526
22.84000 434.258
22.88000 428.552
22.92000 428.741
22.96000 442.355
23.00000 443.478
23.04000 431.237
23.08000 437.649
23.12000 425.029
23.16000 436.350
23.20000 429.288
23.24000 427.178
23.28000 414.737
23.32000 423.900
23.36000 407.450
23.40000 426.988
23.44000 433.382
23.48000 426.524
23.52000 432.269
23.56000 432.425
23.60000 441.854
23.64000 432.738
23.68000 431.497
23.72000 435.727
23.76000 423.889
23.80000 454.146
23.84000 459.266
23.88000 483.836
23.92000 474.743
23.96000 491.479
24.00000 470.746
24.04000 460.021
24.08000 458.666
24.12000 468.214
24.16000 448.217
24.20000 460.760
24.24000 439.554
24.28000 437.965
24.32000 426.050
24.36000 430.554
24.40000 412.605
24.44000 400.296
24.48000 403.116
24.52000 430.311
24.56000 390.874
24.60000 408.369
24.64000 398.571
24.68000 398.251
24.72000 394.859
24.76000 410.059
24.80000 400.527
24.84000 403.558
24.88000 405.144
24.92000 389.681
24.96000 420.267
25.00000 420.904
25.04000 387.127
25.08000 411.233
25.12000 387.805
25.16000 381.566
25.20000 398.840
25.24000 403.080
25.28000 385.153
25.32000 409.024
25.36000 405.937
25.40000 403.769
25.44000 397.361
25.48000 395.811
25.52000 378.660
25.56000 388.432
25.60000 389.748
25.64000 386.840
25.68000 395.110
25.72000 398.282
25.76000 392.813
25.80000 403.065
25.84000 389.623
25.88000 381.884
25.92000 394.486
25.96000 385.696
26.00000 393.161
26.04000 386.514
26.08000 376.173
26.12000 385.333
26.16000 382.760
26.20000 379.789
26.24000 372.330
26.28000 378.902
26.32000 379.755
26.36000 374.382
26.40000 388.210
26.44000 393.227
26.48000 391.599
26.52000 389.439
26.56000 392.988
26.60000 390.638
26.64000 380.204
26.68000 366.129
26.72000 367.235
26.76000 361.855
26.80000 371.926
26.84000 373.024
26.88000 365.206
26.92000 369.248
26.96000 382.545
27.00000 366.047
27.04000 363.087
27.08000 382.750
27.12000 374.556
27.16000 348.851
27.20000 358.127
27.24000 360.099
27.28000 380.809
27.32000 366.638
27.36000 374.825
27.40000 375.585
27.44000 356.588
27.48000 366.809
27.52000 375.472
27.56000 367.443
27.60000 361.223
27.64000 367.458
27.68000 378.704
27.72000 358.349
27.76000 364.933
27.80000 354.156
27.84000 366.312
27.88000 373.953
27.92000 349.057
27.96000 351.403
28.00000 370.432
28.04000 358.964
28.08000 356.860
28.12000 382.378
28.16000 371.754
28.20000 358.634
28.24000 341.061
28.28000 364.380
28.32000 365.484
28.36000 361.052
28.40000 354.465
28.44000 349.476
28.48000 356.085
28.52000 347.954
28.56000 353.182
28.60000 351.575
28.64000 359.080
28.68000 342.621
28.72000 358.137
28.76000 347.082
28.80000 362.985
28.84000 362.071
28.88000 353.472
28.92000 351.993
28.96000 357.512
29.00000 342.560
29.04000 337.684
29.08000 351.429
29.12000 346.234
29.16000 348.230
29.20000 341.239
29.24000 343.716
29.28000 338.700
29.32000 347.433
29.36000 372.799
29.40000 362.214
29.44000 344.246
29.48000 345.020
29.52000 342.339
29.56000 328.961
29.60000 328.606
29.64000 355.472
29.68000 353.969
29.72000 340.268
29.76000 352.554
29.80000 349.485
29.84000 340.484
29.88000 364.886
29.92000 361.470
29.96000 360.248
30.00000 360.531
30.04000 360.341
30.08000 371.160
30.12000 377.987
30.16000 362.891
30.20000 360.952
30.24000 353.279
30.28000 344.628
30.32000 347.250
30.36000 335.327
30.40000 362.325
30.44000 353.908
30.48000 337.447
30.52000 350.057
30.56000 349.051
30.60000 345.132
30.64000 361.528
30.68000 363.655
30.72000 341.927
30.76000 346.177
30.80000 360.787
30.84000 368.844
30.88000 391.844
30.92000 385.519
30.96000 400.269
31.00000 411.134
31.04000 441.524
31.08000 472.581
31.12000 541.747
31.16000 635.472
31.20000 745.802
31.24000 847.340
31.28000 957.244
31.32000 1062.965
31.36000 1105.645
31.40000 1124.875
31.44000 1110.335
31.48000 983.207
31.52000 892.802
31.56000 781.970
31.60000 657.289
31.64000 569.408
31.68000 496.893
31.72000 480.251
31.76000 417.860
31.80000 394.982
31.84000 392.778
31.88000 366.073
31.92000 358.919
31.96000 339.481
32.00000 339.046
32.04000 354.850
32.08000 345.815
32.12000 332.914
32.16000 338.054
32.20000 328.883
32.24000 314.665
32.28000 334.959
32.32000 325.332
32.36000 316.237
32.40000 324.403
32.44000 318.366
32.48000 324.811
32.52000 307.132
32.56000 305.679
32.60000 308.775
32.64000 325.451
32.68000 306.603
32.72000 295.455
32.76000 313.585
32.80000 327.761
32.84000 393.450
32.88000 463.889
32.92000 488.921
32.96000 509.833
33.00000 533.616
33.04000 507.357
33.08000 442.260
33.12000 384.324
33.16000 322.892
33.20000 308.615
33.24000 308.570
33.28000 307.282
33.32000 283.892
33.36000 275.688
33.40000 278.792
33.44000 274.278
33.48000 282.217
33.52000 289.362
33.56000 289.401
33.60000 280.090
33.64000 283.485
33.68000 289.220
33.72000 292.188
33.76000 290.870
33.80000 291.341
33.84000 285.220
33.88000 290.716
33.92000 299.519
33.96000 286.637
34.00000 306.584
34.04000 311.956
34.08000 311.761
34.12000 290.847
34.16000 316.523
34.20000 307.908
34.24000 316.644
34.28000 321.557
34.32000 326.822
34.36000 325.591
34.40000 327.444
34.44000 326.620
34.48000 326.743
34.52000 317.499
34.56000 311.234
34.60000 289.605
34.64000 287.846
34.68000 305.563
34.72000 282.215
34.76000 283.423
34.80000 292.216
34.84000 284.087
34.88000 276.441
34.92000 271.257
34.96000 285.463
35.00000 274.565
35.04000 272.599
35.08000 258.461
35.12000 273.852
35.16000 274.801
35.20000 270.256
35.24000 272.561
35.28000 263.781
35.32000 268.831
35.36000 267.400
35.40000 257.878
35.44000 259.018
35.48000 246.670
35.52000 271.827
35.56000 265.999
35.60000 257.204
35.64000 255.152
35.68000 268.074
35.72000 265.658
35.76000 253.537
35.80000 254.660
35.84000 261.950
35.88000 252.988
35.92000 257.376
35.96000 254.930
36.00000 245.333
36.04000 248.193
36.08000 232.235
36.12000 251.445
36.16000 245.162
36.20000 257.882
36.24000 259.930
36.28000 261.210
36.32000 244.924
36.36000 243.026
36.40000 242.661
36.44000 232.603
36.48000 253.427
36.52000 249.534
36.56000 254.428
36.60000 242.687
36.64000 243.923
36.68000 257.540
36.72000 258.947
36.76000 254.438
36.80000 267.312
36.84000 256.858
36.88000 265.193
36.92000 256.131
36.96000 268.348
37.00000 276.495
37.04000 275.407
37.08000 283.046
37.12000 273.355
37.16000 267.794
37.20000 271.684
37.24000 262.709
37.28000 278.432
37.32000 255.116
37.36000 256.064
37.40000 245.260
37.44000 258.918
37.48000 234.480
37.52000 248.452
37.56000 248.614
37.60000 258.499
37.64000 247.772
37.68000 241.630
37.72000 251.005
37.76000 244.322
37.80000 242.284
37.84000 240.201
37.88000 258.663
37.92000 242.737
37.96000 260.200
38.00000 258.477
38.04000 259.390
38.08000 250.725
38.12000 253.047
38.16000 261.650
38.20000 251.597
38.24000 259.966
38.28000 257.800
38.32000 265.722
38.36000 298.381
38.40000 328.036
38.44000 347.611
38.48000 433.302
38.52000 510.693
38.56000 616.566
38.60000 697.100
38.64000 839.079
38.68000 917.853
38.72000 949.502
38.76000 950.018
38.80000 900.147
38.84000 804.683
38.88000 702.155
38.92000 574.470
38.96000 465.839
39.00000 371.322
39.04000 317.181
39.08000 305.331
39.12000 252.365
39.16000 244.048
39.20000 238.236
39.24000 231.087
39.28000 234.245
39.32000 239.696
39.36000 233.115
39.40000 229.267
39.44000 228.405
39.48000 231.257
39.52000 241.927
39.56000 230.994
39.60000 224.563
39.64000 233.897
39.68000 228.894
39.72000 216.307
39.76000 228.871
39.80000 228.334
39.84000 234.214
39.88000 232.561
39.92000 234.304
39.96000 213.823
40.00000 212.938
40.04000 213.781
40.08000 214.604
40.12000 214.094
40.16000 217.681
40.20000 221.357
40.24000 227.293
40.28000 226.853
40.32000 224.862
40.36000 210.964
40.40000 230.900
40.44000 220.437
40.48000 217.030
40.52000 209.069
40.56000 204.395
40.60000 218.350
40.64000 210.463
40.68000 220.774
40.72000 210.375
40.76000 211.812
40.80000 210.908
40.84000 201.972
40.88000 219.440
40.92000 213.215
40.96000 210.305
41.00000 215.511
41.04000 208.299
41.08000 215.208
41.12000 198.292
41.16000 210.859
41.20000 204.834
41.24000 219.882
41.28000 213.753
41.32000 201.737
41.36000 216.245
41.40000 209.568
41.44000 211.012
41.48000 201.190
41.52000 212.658
41.56000 205.467
41.60000 198.841
41.64000 205.390
41.68000 189.970
41.72000 197.710
41.76000 214.840
41.80000 195.628
41.84000 199.722
41.88000 207.311
41.92000 202.518
41.96000 201.150
42.00000 211.150
42.04000 199.600
42.08000 210.554
42.12000 215.833
42.16000 203.626
42.20000 207.746
42.24000 192.599
42.28000 195.774
42.32000 207.178
42.36000 216.733
42.40000 198.430
42.44000 204.611
42.48000 199.811
42.52000 206.318
42.56000 190.664
42.60000 199.991
42.64000 199.211
42.68000 193.755
42.72000 188.453
42.76000 196.201
42.80000 203.530
42.84000 204.669
42.88000 191.646
42.92000 206.743
42.96000 196.466
43.00000 196.870
43.04000 200.990
43.08000 201.837
43.12000 189.193
43.16000 189.552
43.20000 186.544
43.24000 185.760
43.28000 190.072
43.32000 201.424
43.36000 202.808
43.40000 178.210
43.44000 187.399
43.48000 209.810
43.52000 188.840
43.56000 197.025
43.60000 189.668
43.64000 183.148
43.68000 182.959
43.72000 185.139
43.76000 192.647
43.80000 190.433
43.84000 198.238
43.88000 183.128
43.92000 178.500
43.96000 195.567
44.00000 184.545
44.04000 193.693
44.08000 187.879
44.12000 188.383
44.16000 201.697
44.20000 187.721
44.24000 193.530
44.28000 191.846
44.32000 202.166
44.36000 198.454
44.40000 177.641
44.44000 188.875
44.48000 191.999
44.52000 194.430
44.56000 208.578
44.60000 213.150
44.64000 211.882
44.68000 219.390
44.72000 212.398
44.76000 224.782
44.80000 221.941
44.84000 224.680
44.88000 236.703
44.92000 247.419
44.96000 243.393
45.00000 262.518
45.04000 246.782
45.08000 251.945
45.12000 268.295
45.16000 249.548
45.20000 252.252
45.24000 240.775
45.28000 234.377
45.32000 226.140
45.36000 228.495
45.40000 221.605
45.44000 207.051
45.48000 200.578
45.52000 208.124
45.56000 195.994
45.60000 199.096
45.64000 194.069
45.68000 195.999
45.72000 198.139
45.76000 198.520
45.80000 196.459
45.84000 199.001
45.88000 192.538
45.92000 177.985
45.96000 174.932
46.00000 195.469
46.04000 182.623
46.08000 174.118
46.12000 179.580
46.16000 183.209
46.20000 166.811
46.24000 169.058
46.28000 167.415
46.32000 170.583
46.36000 176.109
46.40000 177.593
46.44000 171.728
46.48000 172.398
46.52000 161.755
46.56000 168.072
46.60000 179.448
46.64000 167.321
46.68000 170.311
46.72000 168.109
46.76000 170.442
46.80000 174.648
46.84000 178.751
46.88000 169.505
46.92000 160.694
46.96000 169.251
47.00000 166.570
47.04000 159.190
47.08000 170.040
47.12000 171.659
47.16000 162.495
47.20000 161.472
47.24000 166.486
47.28000 164.873
47.32000 162.706
47.36000 156.205
47.40000 166.534
47.44000 157.798
47.48000 157.020
47.52000 157.619
47.56000 162.599
47.60000 152.407
47.64000 157.540
47.68000 156.014
47.72000 159.824
47.76000 161.783
47.80000 157.283
47.84000 142.820
47.88000 151.563
47.92000 162.793
47.96000 165.780
48.00000 167.886
48.04000 165.997
48.08000 154.192
48.12000 154.495
48.16000 157.092
48.20000 156.329
48.24000 165.833
48.28000 156.834
48.32000 154.997
48.36000 168.612
48.40000 148.295
48.44000 157.285
48.48000 155.245
48.52000 146.750
48.56000 150.478
48.60000 155.569
48.64000 149.963
48.68000 165.651
48.72000 158.504
48.76000 152.974
48.80000 155.331
48.84000 149.907
48.88000 144.710
48.92000 159.845
48.96000 160.412
49.00000 153.150
49.04000 145.909
49.08000 159.592
49.12000 156.751
49.16000 153.483
49.20000 151.547
49.24000 148.871
49.28000 154.225
49.32000 141.527
49.36000 153.997
49.40000 154.728
49.44000 149.064
49.48000 154.528
49.52000 144.371
49.56000 155.065
49.60000 150.875
49.64000 146.236
49.68000 148.842
49.72000 141.899
49.76000 150.005
49.80000 151.062
49.84000 159.185
49.88000 155.062
49.92000 148.379
49.96000 147.274
50.00000 144.310
50.04000 140.626
50.08000 142.070
50.12000 154.148
50.16000 143.792
50.20000 149.728
50.24000 148.210
50.28000 152.767
50.32000 157.431
50.36000 150.809
50.40000 159.842
50.44000 153.126
50.48000 159.303
50.52000 156.067
50.56000 174.040
50.60000 164.366
50.64000 159.056
50.68000 175.242
50.72000 170.312
50.76000 155.163
50.80000 155.900
50.84000 153.551
50.88000 162.697
50.92000 158.116
50.96000 144.282
51.00000 151.062
51.04000 148.517
51.08000 155.175
51.12000 158.261
51.16000 143.916
51.20000 145.555
51.24000 152.326
51.28000 149.399
51.32000 138.594
51.36000 142.318
51.40000 135.520
51.44000 139.663
51.48000 142.117
51.52000 145.606
51.56000 149.738
51.60000 136.956
51.64000 150.090
51.68000 142.976
51.72000 140.947
51.76000 145.805
51.80000 130.763
51.84000 145.585
51.88000 139.425
51.92000 139.189
51.96000 140.693
52.00000 150.470
52.04000 140.102
52.08000 151.437
52.12000 139.290
52.16000 131.551
52.20000 136.875
52.24000 135.089
52.28000 133.975
52.32000 136.957
52.36000 136.439
52.40000 145.483
52.44000 130.029
52.48000 132.749
52.52000 136.326
52.56000 131.382
52.60000 137.589
52.64000 136.880
52.68000 147.981
52.72000 133.174
52.76000 139.321
52.80000 135.976
52.84000 140.767
52.88000 126.056
52.92000 135.353
52.96000 129.823
53.00000 134.279
53.04000 146.810
53.08000 129.580
53.12000 140.917
53.16000 135.097
53.20000 148.107
53.24000 138.870
53.28000 156.245
53.32000 147.398
53.36000 146.105
53.40000 160.565
53.44000 168.606
53.48000 153.978
53.52000 156.097
53.56000 155.007
53.60000 148.728
53.64000 139.889
53.68000 147.990
53.72000 147.711
53.76000 153.665
53.80000 134.005
53.84000 146.316
53.88000 138.561
53.92000 144.334
53.96000 142.310
54.00000 139.054
54.04000 146.441
54.08000 139.055
54.12000 128.820
54.16000 129.840
54.20000 134.618
54.24000 131.042
54.28000 143.529
54.32000 128.045
54.36000 133.620
54.40000 128.758
54.44000 137.613
54.48000 130.805
54.52000 133.685
54.56000 145.069
54.60000 132.366
54.64000 141.374
54.68000 129.815
54.72000 132.108
54.76000 141.623
54.80000 134.651
54.84000 150.929
54.88000 130.151
54.92000 133.871
54.96000 139.564
55.00000 133.751
55.04000 139.985
55.08000 142.368
55.12000 130.787
55.16000 140.697
55.20000 134.360
55.24000 147.731
55.28000 150.747
55.32000 147.753
55.36000 153.964
55.40000 156.468
55.44000 162.502
55.48000 185.703
55.52000 186.754
55.56000 208.734
55.60000 224.850
55.64000 268.894
55.68000 304.023
55.72000 343.003
55.76000 376.922
55.80000 457.901
55.84000 505.073
55.88000 545.035
55.92000 600.499
55.96000 592.310
56.00000 575.174
56.04000 550.856
56.08000 505.099
56.12000 466.759
56.16000 406.070
56.20000 339.522
56.24000 310.654
56.28000 266.233
56.32000 243.937
56.36000 225.912
56.40000 182.194
56.44000 171.902
56.48000 167.295
56.52000 147.209
56.56000 140.129
56.60000 137.366
56.64000 142.306
56.68000 141.769
56.72000 131.724
56.76000 128.023
56.80000 131.705
56.84000 137.673
56.88000 126.759
56.92000 131.682
56.96000 145.254
57.00000 128.105
57.04000 131.748
57.08000 128.454
57.12000 124.682
57.16000 119.852
57.20000 121.688
57.24000 125.643
57.28000 129.358
57.32000 128.488
57.36000 134.399
57.40000 128.473
57.44000 124.310
57.48000 116.809
57.52000 125.213
57.56000 124.887
57.60000 120.902
57.64000 116.559
57.68000 130.223
57.72000 126.248
57.76000 124.340
57.80000 119.922
57.84000 120.703
57.88000 117.835
57.92000 112.062
57.96000 123.450
58.00000 120.915
58.04000 116.293
58.08000 123.027
58.12000 121.084
58.16000 115.459
58.20000 130.201
58.24000 121.202
58.28000 118.647
58.32000 122.760
58.36000 122.575
58.40000 124.449
58.44000 119.188
58.48000 120.019
58.52000 119.119
58.56000 114.466
58.60000 120.350
58.64000 115.561
58.68000 120.981
58.72000 115.806
58.76000 127.634
58.80000 126.607
58.84000 116.629
58.88000 121.349
58.92000 112.954
58.96000 130.061
59.00000 111.100
59.04000 119.009
59.08000 116.523
59.12000 112.656
59.16000 118.781
59.20000 118.892
59.24000 113.465
59.28000 120.953
59.32000 118.311
59.36000 106.150
59.40000 119.430
59.44000 112.007
59.48000 111.704
59.52000 113.997
59.56000 120.522
59.60000 122.584
59.64000 116.401
59.68000 108.821
59.72000 113.283
59.76000 107.942
59.80000 110.749
59.84000 117.297
59.88000 111.097
59.92000 110.993
59.96000 116.296
60.00000 114.668
60.04000 119.286
60.08000 115.954
60.12000 115.430
60.16000 113.364
60.20000 119.641
60.24000 111.610
60.28000 114.079
60.32000 117.069
60.36000 112.670
60.40000 121.998
60.44000 110.570
60.48000 113.588
60.52000 115.564
60.56000 119.539
60.60000 118.459
60.64000 111.037
60.68000 112.903
60.72000 124.054
60.76000 118.735
60.80000 118.970
60.84000 119.525
60.88000 122.718
60.92000 109.816
60.96000 117.066
61.00000 121.498
61.04000 123.998
61.08000 122.629
61.12000 116.232
61.16000 117.415
61.20000 118.395
61.24000 109.541
61.28000 122.531
61.32000 120.253
61.36000 123.027
61.40000 122.932
61.44000 124.958
61.48000 137.187
61.52000 154.941
61.56000 191.247
61.60000 254.528
61.64000 282.540
61.68000 291.202
61.72000 291.368
61.76000 281.342
61.80000 216.083
61.84000 156.878
61.88000 144.086
61.92000 140.340
61.96000 130.244
62.00000 135.039
62.04000 126.535
62.08000 135.947
62.12000 130.179
62.16000 121.761
62.20000 132.695
62.24000 134.352
62.28000 122.320
62.32000 123.443
62.36000 127.001
62.40000 121.280
62.44000 129.163
62.48000 121.548
62.52000 121.565
62.56000 122.942
62.60000 121.425
62.64000 121.011
62.68000 114.069
62.72000 130.167
62.76000 132.502
62.80000 129.950
62.84000 130.554
62.88000 116.791
62.92000 136.303
62.96000 137.191
63.00000 124.689
63.04000 133.469
63.08000 134.070
63.12000 136.704
63.16000 128.605
63.20000 132.655
63.24000 126.680
63.28000 137.047
63.32000 129.984
63.36000 132.805
63.40000 132.072
63.44000 131.151
63.48000 128.778
63.52000 129.939
63.56000 125.104
63.60000 136.677
63.64000 138.612
63.68000 136.306
63.72000 142.965
63.76000 130.181
63.80000 134.468
63.84000 137.453
63.88000 142.792
63.92000 147.633
63.96000 132.667
64.00000 143.131
64.04000 145.439
64.08000 137.348
64.12000 142.625
64.16000 146.537
64.20000 145.333
64.24000 151.845
64.28000 146.999
64.32000 146.320
64.36000 161.108
64.40000 149.115
64.44000 154.138
64.48000 157.108
64.52000 157.306
64.56000 154.599
64.60000 160.927
64.64000 160.305
64.68000 162.324
64.72000 162.245
64.76000 158.417
64.80000 166.745
64.84000 162.870
64.88000 172.244
64.92000 173.860
64.96000 193.630
65.00000 185.893
65.04000 178.118
65.08000 200.189
65.12000 188.877
65.16000 200.969
65.20000 214.006
65.24000 221.333
65.28000 239.486
65.32000 228.058
65.36000 250.062
65.40000 261.309
65.44000 279.125
65.48000 296.145
65.52000 307.594
65.56000 315.903
65.60000 367.811
65.64000 433.147
65.68000 570.621
65.72000 932.403
65.76000 1407.861
65.80000 1761.720
65.84000 1896.675
65.88000 1921.916
65.92000 1893.666
65.96000 1494.865
66.00000 951.635
66.04000 634.728
66.08000 449.986
66.12000 400.703
66.16000 372.182
66.20000 371.234
66.24000 394.661
66.28000 456.762
66.32000 549.813
66.36000 603.294
66.40000 619.335
66.44000 592.159
66.48000 582.066
66.52000 526.946
66.56000 448.975
66.60000 386.932
66.64000 348.741
66.68000 349.728
66.72000 345.994
66.76000 353.279
66.80000 345.466
66.84000 362.122
66.88000 354.182
66.92000 342.693
66.96000 360.850
67.00000 363.291
67.04000 357.704
67.08000 371.725
67.12000 372.702
67.16000 381.372
67.20000 391.403
67.24000 403.130
67.28000 397.755
67.32000 397.360
67.36000 391.942
67.40000 402.005
67.44000 387.817
67.48000 401.429
67.52000 413.130
67.56000 408.747
67.60000 433.884
67.64000 442.555
67.68000 435.181
67.72000 448.195
67.76000 440.525
67.80000 451.215
67.84000 467.545
67.88000 447.413
67.92000 492.670
67.96000 492.294
68.00000 490.714
68.04000 502.672
68.08000 504.192
68.12000 516.028
68.16000 529.711
68.20000 543.063
68.24000 539.413
68.28000 572.420
68.32000 577.244
68.36000 597.502
68.40000 638.953
68.44000 641.661
68.48000 676.508
68.52000 712.746
68.56000 762.893
68.60000 839.095
68.64000 983.162
68.68000 1128.140
68.72000 1286.652
68.76000 1458.055
68.80000 1659.294
68.84000 1886.110
68.88000 2285.099
68.92000 3523.898
68.96000 9824.475
69.00000 22053.189
69.04000 34386.531
69.08000 40681.277
69.12000 43281.387
69.16000 46063.898
69.20000 45155.027
69.24000 35545.816
69.28000 26550.383
69.32000 21905.154
69.36000 20512.385
69.40000 16823.525
69.44000 10099.956
69.48000 4592.384
69.52000 2039.510
69.56000 1307.347
69.60000 1034.052
69.64000 886.969
69.68000 782.664
69.72000 712.420
69.76000 663.660
69.80000 621.654
69.84000 586.415
69.88000 537.786
69.92000 532.880
69.96000 512.785
70.00000 493.828