File: XRD/XRD/07-10-2025 Dep 6/XY Data/BTO_Mapping_Theta2Theta_07-10-2025_001_16_9-271_28-532.xy
20.00000 490.749
20.04000 477.068
20.08000 465.979
20.12000 481.567
20.16000 466.448
20.20000 455.306
20.24000 470.616
20.28000 470.519
20.32000 474.528
20.36000 459.848
20.40000 460.542
20.44000 450.270
20.48000 446.599
20.52000 451.862
20.56000 472.031
20.60000 477.166
20.64000 460.242
20.68000 471.835
20.72000 453.994
20.76000 452.880
20.80000 453.037
20.84000 441.481
20.88000 458.458
20.92000 461.575
20.96000 464.119
21.00000 445.632
21.04000 455.899
21.08000 459.053
21.12000 447.843
21.16000 471.522
21.20000 456.074
21.24000 473.275
21.28000 441.110
21.32000 463.467
21.36000 455.640
21.40000 449.116
21.44000 456.960
21.48000 454.387
21.52000 455.114
21.56000 487.926
21.60000 451.642
21.64000 448.435
21.68000 455.466
21.72000 471.632
21.76000 462.514
21.80000 462.952
21.84000 471.224
21.88000 467.879
21.92000 499.733
21.96000 475.419
22.00000 486.864
22.04000 494.105
22.08000 508.754
22.12000 483.329
22.16000 496.062
22.20000 476.335
22.24000 477.190
22.28000 482.331
22.32000 482.271
22.36000 456.131
22.40000 466.351
22.44000 458.918
22.48000 434.915
22.52000 450.996
22.56000 442.288
22.60000 417.333
22.64000 449.094
22.68000 425.442
22.72000 430.109
22.76000 444.687
22.80000 424.298
22.84000 435.514
22.88000 422.845
22.92000 445.208
22.96000 447.455
23.00000 420.666
23.04000 439.179
23.08000 439.277
23.12000 424.934
23.16000 434.216
23.20000 442.327
23.24000 421.515
23.28000 444.802
23.32000 425.934
23.36000 437.409
23.40000 440.264
23.44000 425.561
23.48000 431.892
23.52000 452.636
23.56000 453.684
23.60000 444.330
23.64000 430.860
23.68000 475.886
23.72000 471.497
23.76000 476.227
23.80000 459.984
23.84000 493.593
23.88000 473.751
23.92000 485.867
23.96000 506.053
24.00000 500.190
24.04000 505.423
24.08000 501.528
24.12000 481.594
24.16000 499.459
24.20000 455.470
24.24000 452.279
24.28000 436.810
24.32000 448.835
24.36000 418.064
24.40000 431.958
24.44000 423.914
24.48000 431.012
24.52000 417.714
24.56000 403.618
24.60000 403.508
24.64000 422.416
24.68000 406.419
24.72000 418.217
24.76000 413.893
24.80000 408.827
24.84000 398.465
24.88000 406.953
24.92000 429.473
24.96000 405.867
25.00000 401.739
25.04000 408.940
25.08000 411.710
25.12000 396.229
25.16000 394.285
25.20000 416.041
25.24000 403.368
25.28000 392.233
25.32000 396.420
25.36000 389.127
25.40000 399.884
25.44000 404.849
25.48000 382.161
25.52000 374.482
25.56000 402.910
25.60000 396.431
25.64000 389.931
25.68000 386.707
25.72000 392.811
25.76000 394.829
25.80000 384.883
25.84000 363.643
25.88000 388.546
25.92000 386.850
25.96000 379.856
26.00000 401.416
26.04000 373.147
26.08000 375.482
26.12000 392.556
26.16000 384.827
26.20000 385.804
26.24000 380.006
26.28000 375.144
26.32000 402.119
26.36000 382.603
26.40000 391.131
26.44000 370.060
26.48000 395.908
26.52000 365.391
26.56000 390.023
26.60000 376.391
26.64000 375.935
26.68000 366.297
26.72000 387.326
26.76000 393.937
26.80000 390.896
26.84000 377.763
26.88000 367.586
26.92000 377.867
26.96000 365.443
27.00000 372.933
27.04000 375.138
27.08000 364.901
27.12000 375.218
27.16000 366.681
27.20000 368.198
27.24000 383.017
27.28000 352.692
27.32000 363.092
27.36000 371.474
27.40000 361.126
27.44000 371.550
27.48000 380.252
27.52000 360.202
27.56000 386.039
27.60000 375.781
27.64000 382.935
27.68000 390.064
27.72000 371.629
27.76000 362.921
27.80000 366.736
27.84000 364.827
27.88000 370.639
27.92000 355.052
27.96000 373.380
28.00000 372.062
28.04000 355.768
28.08000 353.207
28.12000 367.378
28.16000 355.795
28.20000 361.387
28.24000 367.954
28.28000 351.334
28.32000 372.374
28.36000 358.525
28.40000 364.908
28.44000 346.985
28.48000 350.118
28.52000 360.293
28.56000 346.133
28.60000 356.338
28.64000 343.573
28.68000 365.848
28.72000 353.071
28.76000 355.615
28.80000 344.665
28.84000 356.644
28.88000 358.324
28.92000 354.918
28.96000 371.618
29.00000 356.356
29.04000 347.173
29.08000 349.932
29.12000 365.355
29.16000 358.234
29.20000 363.921
29.24000 358.800
29.28000 353.731
29.32000 350.349
29.36000 353.807
29.40000 347.124
29.44000 342.107
29.48000 341.667
29.52000 347.698
29.56000 367.024
29.60000 345.147
29.64000 354.188
29.68000 349.429
29.72000 352.300
29.76000 361.463
29.80000 376.910
29.84000 390.146
29.88000 362.803
29.92000 364.689
29.96000 371.658
30.00000 374.320
30.04000 360.012
30.08000 380.492
30.12000 381.288
30.16000 360.924
30.20000 372.157
30.24000 385.555
30.28000 378.721
30.32000 352.657
30.36000 382.021
30.40000 357.374
30.44000 349.662
30.48000 356.441
30.52000 358.125
30.56000 370.125
30.60000 383.431
30.64000 369.090
30.68000 362.167
30.72000 381.131
30.76000 369.012
30.80000 367.179
30.84000 393.670
30.88000 399.216
30.92000 403.110
30.96000 412.637
31.00000 438.608
31.04000 469.351
31.08000 508.225
31.12000 559.883
31.16000 639.756
31.20000 691.745
31.24000 806.257
31.28000 895.276
31.32000 956.661
31.36000 1014.252
31.40000 1019.447
31.44000 981.686
31.48000 917.862
31.52000 843.583
31.56000 742.007
31.60000 662.455
31.64000 556.052
31.68000 522.363
31.72000 470.874
31.76000 453.344
31.80000 421.058
31.84000 424.622
31.88000 385.507
31.92000 397.008
31.96000 366.941
32.00000 370.606
32.04000 360.770
32.08000 350.721
32.12000 352.192
32.16000 357.836
32.20000 344.780
32.24000 347.935
32.28000 337.063
32.32000 325.293
32.36000 328.300
32.40000 343.871
32.44000 332.064
32.48000 324.275
32.52000 310.111
32.56000 315.533
32.60000 318.407
32.64000 321.326
32.68000 301.234
32.72000 315.059
32.76000 327.648
32.80000 351.874
32.84000 410.462
32.88000 450.379
32.92000 505.465
32.96000 537.180
33.00000 539.526
33.04000 532.102
33.08000 459.549
33.12000 379.777
33.16000 338.075
33.20000 305.711
33.24000 291.204
33.28000 283.705
33.32000 289.494
33.36000 293.868
33.40000 286.437
33.44000 300.924
33.48000 300.916
33.52000 296.178
33.56000 294.514
33.60000 287.417
33.64000 289.696
33.68000 290.090
33.72000 267.297
33.76000 295.802
33.80000 300.084
33.84000 294.616
33.88000 306.422
33.92000 285.875
33.96000 300.688
34.00000 298.315
34.04000 304.721
34.08000 315.620
34.12000 315.596
34.16000 314.821
34.20000 322.130
34.24000 313.558
34.28000 314.985
34.32000 328.923
34.36000 320.761
34.40000 324.800
34.44000 310.040
34.48000 316.321
34.52000 300.010
34.56000 309.761
34.60000 304.484
34.64000 295.069
34.68000 281.204
34.72000 292.325
34.76000 303.853
34.80000 288.350
34.84000 276.756
34.88000 283.411
34.92000 279.473
34.96000 264.124
35.00000 274.440
35.04000 273.506
35.08000 282.408
35.12000 272.219
35.16000 268.315
35.20000 273.008
35.24000 272.834
35.28000 273.647
35.32000 262.564
35.36000 252.917
35.40000 253.905
35.44000 265.250
35.48000 255.294
35.52000 265.537
35.56000 263.450
35.60000 263.997
35.64000 256.058
35.68000 259.100
35.72000 267.508
35.76000 271.880
35.80000 259.649
35.84000 265.596
35.88000 264.386
35.92000 260.226
35.96000 245.374
36.00000 261.604
36.04000 256.107
36.08000 255.805
36.12000 243.524
36.16000 258.078
36.20000 260.536
36.24000 249.036
36.28000 270.138
36.32000 248.907
36.36000 249.781
36.40000 250.522
36.44000 256.821
36.48000 256.331
36.52000 251.383
36.56000 262.801
36.60000 254.004
36.64000 253.652
36.68000 254.684
36.72000 251.609
36.76000 246.234
36.80000 252.202
36.84000 261.825
36.88000 259.396
36.92000 262.808
36.96000 257.448
37.00000 254.553
37.04000 258.119
37.08000 264.063
37.12000 253.465
37.16000 248.094
37.20000 266.269
37.24000 266.275
37.28000 262.029
37.32000 257.364
37.36000 259.525
37.40000 249.948
37.44000 244.051
37.48000 254.022
37.52000 251.848
37.56000 239.093
37.60000 251.351
37.64000 258.468
37.68000 251.034
37.72000 253.553
37.76000 244.435
37.80000 256.766
37.84000 246.965
37.88000 248.870
37.92000 242.596
37.96000 242.930
38.00000 260.432
38.04000 266.766
38.08000 257.489
38.12000 259.405
38.16000 257.855
38.20000 247.783
38.24000 263.394
38.28000 263.898
38.32000 275.274
38.36000 295.340
38.40000 289.256
38.44000 326.425
38.48000 368.217
38.52000 426.388
38.56000 487.537
38.60000 551.151
38.64000 625.413
38.68000 684.586
38.72000 688.624
38.76000 666.122
38.80000 623.902
38.84000 542.547
38.88000 479.154
38.92000 430.219
38.96000 350.094
39.00000 310.209
39.04000 293.937
39.08000 274.730
39.12000 257.232
39.16000 238.868
39.20000 243.348
39.24000 243.636
39.28000 237.117
39.32000 239.255
39.36000 237.113
39.40000 239.427
39.44000 233.163
39.48000 235.372
39.52000 229.218
39.56000 243.621
39.60000 245.731
39.64000 227.816
39.68000 228.498
39.72000 234.114
39.76000 228.901
39.80000 230.127
39.84000 225.268
39.88000 226.786
39.92000 230.061
39.96000 230.626
40.00000 220.374
40.04000 211.677
40.08000 226.587
40.12000 216.950
40.16000 219.310
40.20000 233.849
40.24000 222.263
40.28000 219.194
40.32000 218.162
40.36000 204.508
40.40000 211.378
40.44000 212.612
40.48000 217.018
40.52000 228.614
40.56000 216.677
40.60000 204.908
40.64000 223.865
40.68000 227.986
40.72000 223.771
40.76000 222.612
40.80000 209.933
40.84000 212.078
40.88000 217.809
40.92000 210.123
40.96000 209.958
41.00000 229.112
41.04000 210.634
41.08000 215.108
41.12000 215.245
41.16000 215.787
41.20000 204.787
41.24000 209.824
41.28000 204.461
41.32000 202.991
41.36000 208.691
41.40000 209.972
41.44000 205.111
41.48000 206.764
41.52000 211.240
41.56000 205.255
41.60000 215.993
41.64000 209.051
41.68000 213.993
41.72000 193.178
41.76000 205.344
41.80000 199.702
41.84000 206.945
41.88000 205.352
41.92000 206.179
41.96000 202.199
42.00000 210.338
42.04000 214.047
42.08000 215.362
42.12000 226.984
42.16000 219.588
42.20000 209.718
42.24000 222.397
42.28000 218.180
42.32000 218.945
42.36000 213.487
42.40000 199.261
42.44000 216.706
42.48000 211.415
42.52000 214.417
42.56000 200.698
42.60000 203.036
42.64000 194.470
42.68000 193.328
42.72000 184.420
42.76000 202.402
42.80000 200.973
42.84000 196.977
42.88000 201.742
42.92000 194.823
42.96000 199.735
43.00000 197.842
43.04000 204.673
43.08000 193.452
43.12000 192.969
43.16000 195.375
43.20000 199.385
43.24000 196.290
43.28000 202.864
43.32000 186.388
43.36000 189.411
43.40000 184.449
43.44000 183.765
43.48000 181.334
43.52000 192.696
43.56000 198.220
43.60000 197.784
43.64000 191.838
43.68000 179.125
43.72000 199.663
43.76000 179.310
43.80000 177.847
43.84000 190.704
43.88000 208.485
43.92000 187.203
43.96000 189.679
44.00000 194.592
44.04000 193.374
44.08000 199.254
44.12000 174.128
44.16000 195.529
44.20000 192.821
44.24000 196.998
44.28000 199.644
44.32000 197.889
44.36000 193.599
44.40000 209.379
44.44000 195.265
44.48000 201.164
44.52000 194.251
44.56000 205.921
44.60000 205.459
44.64000 211.288
44.68000 207.120
44.72000 221.748
44.76000 201.160
44.80000 208.827
44.84000 231.563
44.88000 206.014
44.92000 211.853
44.96000 223.871
45.00000 229.222
45.04000 225.006
45.08000 216.229
45.12000 216.058
45.16000 212.920
45.20000 217.527
45.24000 201.222
45.28000 213.221
45.32000 216.483
45.36000 201.324
45.40000 206.999
45.44000 211.735
45.48000 204.456
45.52000 201.817
45.56000 173.333
45.60000 189.267
45.64000 191.036
45.68000 184.695
45.72000 174.572
45.76000 182.617
45.80000 180.417
45.84000 182.771
45.88000 174.247
45.92000 182.623
45.96000 166.898
46.00000 184.810
46.04000 177.424
46.08000 171.876
46.12000 167.039
46.16000 182.956
46.20000 171.442
46.24000 175.327
46.28000 170.964
46.32000 171.078
46.36000 171.569
46.40000 172.893
46.44000 174.628
46.48000 169.507
46.52000 181.134
46.56000 179.040
46.60000 177.771
46.64000 168.294
46.68000 176.765
46.72000 173.312
46.76000 175.867
46.80000 167.157
46.84000 164.205
46.88000 165.648
46.92000 163.406
46.96000 176.503
47.00000 175.779
47.04000 172.875
47.08000 158.299
47.12000 164.948
47.16000 168.688
47.20000 177.196
47.24000 172.002
47.28000 167.256
47.32000 153.972
47.36000 166.398
47.40000 160.932
47.44000 164.418
47.48000 164.708
47.52000 164.261
47.56000 167.083
47.60000 166.451
47.64000 157.684
47.68000 172.177
47.72000 168.556
47.76000 173.408
47.80000 160.737
47.84000 151.686
47.88000 158.105
47.92000 159.788
47.96000 165.638
48.00000 163.134
48.04000 157.405
48.08000 158.302
48.12000 163.500
48.16000 166.762
48.20000 162.428
48.24000 160.618
48.28000 159.770
48.32000 152.681
48.36000 153.721
48.40000 153.581
48.44000 151.405
48.48000 160.141
48.52000 167.785
48.56000 147.943
48.60000 151.372
48.64000 159.230
48.68000 163.212
48.72000 154.644
48.76000 162.826
48.80000 158.997
48.84000 147.994
48.88000 155.024
48.92000 153.225
48.96000 158.191
49.00000 151.089
49.04000 151.747
49.08000 141.791
49.12000 155.546
49.16000 165.142
49.20000 150.945
49.24000 160.288
49.28000 156.404
49.32000 152.067
49.36000 151.173
49.40000 156.054
49.44000 153.979
49.48000 152.263
49.52000 152.290
49.56000 153.086
49.60000 161.115
49.64000 161.894
49.68000 162.528
49.72000 147.359
49.76000 155.405
49.80000 156.623
49.84000 164.045
49.88000 145.213
49.92000 153.948
49.96000 163.576
50.00000 156.866
50.04000 153.344
50.08000 154.804
50.12000 160.080
50.16000 153.536
50.20000 160.898
50.24000 157.510
50.28000 159.075
50.32000 150.100
50.36000 160.193
50.40000 164.119
50.44000 164.065
50.48000 157.242
50.52000 157.972
50.56000 165.958
50.60000 165.092
50.64000 180.877
50.68000 173.283
50.72000 166.574
50.76000 165.701
50.80000 160.444
50.84000 160.858
50.88000 156.511
50.92000 152.138
50.96000 153.851
51.00000 157.778
51.04000 151.774
51.08000 155.679
51.12000 149.380
51.16000 138.070
51.20000 157.848
51.24000 151.372
51.28000 153.064
51.32000 144.224
51.36000 136.458
51.40000 138.344
51.44000 139.402
51.48000 143.242
51.52000 141.259
51.56000 144.733
51.60000 141.973
51.64000 137.012
51.68000 151.361
51.72000 146.857
51.76000 142.216
51.80000 150.735
51.84000 139.344
51.88000 139.043
51.92000 139.110
51.96000 134.813
52.00000 142.626
52.04000 137.150
52.08000 147.635
52.12000 125.244
52.16000 138.557
52.20000 134.209
52.24000 137.469
52.28000 141.209
52.32000 137.681
52.36000 147.336
52.40000 134.333
52.44000 131.373
52.48000 143.904
52.52000 142.389
52.56000 133.813
52.60000 146.692
52.64000 135.162
52.68000 144.194
52.72000 135.247
52.76000 141.671
52.80000 139.565
52.84000 138.162
52.88000 134.821
52.92000 138.755
52.96000 135.991
53.00000 137.889
53.04000 140.702
53.08000 135.696
53.12000 144.813
53.16000 141.163
53.20000 133.410
53.24000 143.366
53.28000 140.703
53.32000 133.558
53.36000 142.673
53.40000 141.958
53.44000 154.499
53.48000 149.689
53.52000 137.316
53.56000 146.532
53.60000 135.632
53.64000 131.799
53.68000 143.852
53.72000 148.089
53.76000 144.121
53.80000 141.883
53.84000 145.457
53.88000 132.596
53.92000 142.987
53.96000 125.788
54.00000 139.989
54.04000 134.730
54.08000 134.021
54.12000 134.819
54.16000 128.210
54.20000 139.844
54.24000 129.092
54.28000 135.244
54.32000 137.612
54.36000 139.309
54.40000 137.485
54.44000 133.477
54.48000 139.091
54.52000 142.600
54.56000 137.370
54.60000 140.017
54.64000 132.589
54.68000 149.738
54.72000 147.035
54.76000 138.593
54.80000 139.438
54.84000 142.504
54.88000 132.160
54.92000 144.835
54.96000 144.916
55.00000 141.349
55.04000 146.166
55.08000 153.198
55.12000 140.417
55.16000 144.970
55.20000 158.358
55.24000 149.184
55.28000 152.290
55.32000 153.865
55.36000 156.896
55.40000 156.170
55.44000 170.270
55.48000 183.408
55.52000 179.380
55.56000 193.042
55.60000 189.909
55.64000 205.055
55.68000 212.999
55.72000 231.137
55.76000 255.235
55.80000 275.265
55.84000 299.994
55.88000 334.689
55.92000 321.300
55.96000 330.843
56.00000 321.523
56.04000 319.216
56.08000 283.018
56.12000 273.066
56.16000 267.184
56.20000 241.405
56.24000 212.590
56.28000 214.908
56.32000 194.148
56.36000 168.697
56.40000 177.912
56.44000 162.757
56.48000 161.793
56.52000 157.802
56.56000 157.173
56.60000 138.733
56.64000 139.738
56.68000 147.691
56.72000 133.362
56.76000 131.446
56.80000 138.546
56.84000 145.026
56.88000 114.772
56.92000 129.833
56.96000 122.438
57.00000 135.019
57.04000 127.098
57.08000 118.301
57.12000 132.630
57.16000 129.071
57.20000 122.001
57.24000 130.295
57.28000 129.811
57.32000 123.107
57.36000 132.235
57.40000 115.430
57.44000 124.973
57.48000 126.749
57.52000 120.857
57.56000 124.797
57.60000 126.263
57.64000 124.476
57.68000 118.611
57.72000 122.845
57.76000 121.668
57.80000 123.126
57.84000 119.433
57.88000 117.901
57.92000 123.566
57.96000 127.902
58.00000 127.091
58.04000 128.909
58.08000 126.902
58.12000 129.183
58.16000 125.638
58.20000 126.385
58.24000 130.904
58.28000 121.183
58.32000 128.895
58.36000 128.668
58.40000 124.132
58.44000 113.089
58.48000 120.656
58.52000 118.116
58.56000 120.381
58.60000 117.911
58.64000 115.286
58.68000 116.958
58.72000 127.773
58.76000 123.138
58.80000 119.119
58.84000 125.053
58.88000 120.992
58.92000 119.501
58.96000 130.811
59.00000 115.476
59.04000 113.134
59.08000 125.048
59.12000 126.101
59.16000 111.554
59.20000 113.877
59.24000 103.155
59.28000 118.657
59.32000 124.461
59.36000 133.704
59.40000 111.808
59.44000 124.186
59.48000 122.370
59.52000 118.619
59.56000 117.387
59.60000 118.295
59.64000 120.650
59.68000 120.063
59.72000 108.991
59.76000 121.204
59.80000 126.561
59.84000 115.128
59.88000 112.773
59.92000 117.953
59.96000 118.827
60.00000 122.485
60.04000 125.618
60.08000 109.992
60.12000 118.516
60.16000 117.093
60.20000 116.117
60.24000 121.680
60.28000 121.664
60.32000 113.853
60.36000 113.976
60.40000 122.095
60.44000 123.660
60.48000 127.572
60.52000 114.342
60.56000 120.777
60.60000 114.745
60.64000 118.423
60.68000 113.541
60.72000 118.279
60.76000 119.334
60.80000 111.809
60.84000 117.365
60.88000 120.746
60.92000 126.515
60.96000 124.006
61.00000 126.749
61.04000 122.588
61.08000 118.187
61.12000 128.755
61.16000 127.644
61.20000 125.272
61.24000 121.220
61.28000 119.557
61.32000 134.764
61.36000 126.483
61.40000 116.825
61.44000 127.006
61.48000 134.554
61.52000 149.552
61.56000 196.379
61.60000 241.934
61.64000 301.451
61.68000 290.322
61.72000 293.922
61.76000 278.093
61.80000 228.158
61.84000 165.564
61.88000 150.930
61.92000 131.288
61.96000 124.383
62.00000 126.027
62.04000 136.320
62.08000 132.178
62.12000 122.831
62.16000 125.853
62.20000 132.225
62.24000 132.319
62.28000 134.668
62.32000 131.254
62.36000 133.529
62.40000 133.265
62.44000 135.087
62.48000 139.784
62.52000 130.425
62.56000 131.257
62.60000 136.589
62.64000 133.004
62.68000 136.259
62.72000 139.169
62.76000 131.819
62.80000 126.637
62.84000 132.793
62.88000 133.155
62.92000 138.066
62.96000 129.739
63.00000 135.185
63.04000 125.719
63.08000 132.425
63.12000 135.489
63.16000 138.215
63.20000 140.051
63.24000 136.820
63.28000 136.387
63.32000 128.050
63.36000 130.313
63.40000 122.850
63.44000 134.169
63.48000 142.484
63.52000 133.446
63.56000 141.387
63.60000 125.616
63.64000 137.097
63.68000 137.408
63.72000 125.435
63.76000 144.640
63.80000 149.872
63.84000 127.785
63.88000 150.991
63.92000 144.080
63.96000 148.147
64.00000 135.252
64.04000 156.552
64.08000 154.955
64.12000 148.262
64.16000 154.374
64.20000 145.100
64.24000 147.771
64.28000 151.627
64.32000 155.177
64.36000 161.301
64.40000 153.658
64.44000 152.991
64.48000 159.738
64.52000 162.908
64.56000 158.320
64.60000 158.614
64.64000 158.980
64.68000 171.393
64.72000 172.627
64.76000 180.907
64.80000 171.292
64.84000 168.557
64.88000 170.988
64.92000 177.275
64.96000 189.508
65.00000 188.859
65.04000 187.256
65.08000 194.718
65.12000 208.042
65.16000 210.270
65.20000 207.291
65.24000 209.333
65.28000 223.899
65.32000 233.175
65.36000 229.126
65.40000 254.738
65.44000 268.761
65.48000 280.925
65.52000 297.011
65.56000 308.205
65.60000 325.273
65.64000 418.703
65.68000 541.093
65.72000 889.153
65.76000 1375.660
65.80000 1804.658
65.84000 1918.418
65.88000 2000.543
65.92000 1869.864
65.96000 1554.959
66.00000 1046.027
66.04000 679.946
66.08000 483.573
66.12000 399.262
66.16000 378.680
66.20000 388.751
66.24000 409.047
66.28000 451.783
66.32000 547.783
66.36000 616.835
66.40000 654.525
66.44000 629.663
66.48000 603.657
66.52000 540.034
66.56000 448.303
66.60000 397.672
66.64000 372.436
66.68000 362.306
66.72000 346.025
66.76000 347.422
66.80000 353.097
66.84000 348.587
66.88000 363.364
66.92000 365.112
66.96000 355.966
67.00000 376.960
67.04000 386.145
67.08000 381.927
67.12000 393.274
67.16000 400.629
67.20000 410.387
67.24000 407.717
67.28000 409.333
67.32000 405.127
67.36000 402.786
67.40000 414.753
67.44000 416.939
67.48000 436.611
67.52000 414.189
67.56000 437.233
67.60000 445.629
67.64000 463.933
67.68000 450.651
67.72000 460.941
67.76000 474.865
67.80000 469.184
67.84000 488.294
67.88000 477.971
67.92000 495.116
67.96000 505.523
68.00000 520.110
68.04000 503.341
68.08000 515.327
68.12000 513.516
68.16000 543.394
68.20000 555.922
68.24000 567.771
68.28000 582.931
68.32000 582.800
68.36000 612.163
68.40000 634.246
68.44000 658.544
68.48000 673.970
68.52000 741.773
68.56000 788.938
68.60000 853.776
68.64000 972.958
68.68000 1119.675
68.72000 1278.613
68.76000 1465.623
68.80000 1645.472
68.84000 1868.698
68.88000 2275.013
68.92000 3343.985
68.96000 9173.051
69.00000 21296.256
69.04000 34206.113
69.08000 41377.180
69.12000 44009.188
69.16000 46836.410
69.20000 47038.172
69.24000 37822.570
69.28000 27695.852
69.32000 22803.859
69.36000 21125.479
69.40000 17922.748
69.44000 11217.754
69.48000 4988.482
69.52000 2213.615
69.56000 1376.068
69.60000 1099.139
69.64000 929.378
69.68000 812.305
69.72000 752.754
69.76000 693.226
69.80000 633.375
69.84000 616.773
69.88000 580.280
69.92000 537.015
69.96000 536.516
70.00000 511.971