File: XRD/XRD/07-10-2025 Dep 6/XY Data/BTO_Mapping_Theta2Theta_07-10-2025_001_18_-1-045_9-945.xy
20.00000 472.073
20.04000 477.646
20.08000 462.897
20.12000 467.659
20.16000 468.151
20.20000 474.692
20.24000 475.499
20.28000 469.390
20.32000 444.058
20.36000 474.369
20.40000 460.481
20.44000 459.691
20.48000 447.721
20.52000 451.554
20.56000 453.270
20.60000 463.177
20.64000 443.821
20.68000 474.035
20.72000 466.028
20.76000 486.023
20.80000 484.609
20.84000 446.040
20.88000 457.569
20.92000 451.030
20.96000 470.360
21.00000 469.071
21.04000 460.699
21.08000 464.002
21.12000 462.229
21.16000 452.892
21.20000 444.146
21.24000 444.621
21.28000 453.091
21.32000 448.676
21.36000 479.368
21.40000 467.954
21.44000 447.031
21.48000 461.471
21.52000 465.663
21.56000 454.067
21.60000 461.790
21.64000 462.631
21.68000 466.043
21.72000 461.187
21.76000 469.981
21.80000 469.795
21.84000 488.291
21.88000 491.103
21.92000 504.429
21.96000 534.464
22.00000 528.250
22.04000 527.950
22.08000 532.735
22.12000 521.663
22.16000 510.253
22.20000 531.484
22.24000 500.734
22.28000 498.223
22.32000 487.366
22.36000 466.884
22.40000 487.118
22.44000 461.748
22.48000 461.009
22.52000 445.419
22.56000 451.411
22.60000 426.138
22.64000 443.447
22.68000 452.005
22.72000 446.115
22.76000 430.330
22.80000 428.161
22.84000 443.961
22.88000 429.311
22.92000 427.933
22.96000 432.948
23.00000 419.559
23.04000 424.102
23.08000 431.889
23.12000 424.426
23.16000 444.161
23.20000 415.967
23.24000 444.419
23.28000 426.299
23.32000 425.726
23.36000 432.876
23.40000 425.423
23.44000 421.274
23.48000 427.858
23.52000 441.083
23.56000 427.399
23.60000 436.387
23.64000 455.551
23.68000 446.162
23.72000 431.931
23.76000 464.673
23.80000 476.396
23.84000 477.805
23.88000 484.954
23.92000 490.328
23.96000 490.645
24.00000 479.589
24.04000 474.131
24.08000 479.574
24.12000 464.281
24.16000 455.588
24.20000 460.067
24.24000 453.231
24.28000 447.307
24.32000 415.398
24.36000 412.584
24.40000 434.418
24.44000 432.589
24.48000 414.895
24.52000 426.322
24.56000 406.749
24.60000 412.274
24.64000 395.065
24.68000 409.568
24.72000 408.207
24.76000 408.390
24.80000 387.343
24.84000 399.005
24.88000 386.339
24.92000 398.670
24.96000 408.384
25.00000 402.069
25.04000 396.166
25.08000 406.590
25.12000 381.215
25.16000 398.824
25.20000 393.886
25.24000 392.344
25.28000 395.145
25.32000 379.091
25.36000 389.865
25.40000 417.551
25.44000 401.542
25.48000 388.670
25.52000 401.287
25.56000 387.957
25.60000 399.978
25.64000 384.239
25.68000 392.665
25.72000 399.942
25.76000 391.970
25.80000 385.845
25.84000 388.716
25.88000 383.756
25.92000 375.475
25.96000 391.084
26.00000 381.702
26.04000 388.264
26.08000 383.284
26.12000 398.143
26.16000 386.525
26.20000 392.064
26.24000 403.218
26.28000 376.128
26.32000 379.605
26.36000 381.152
26.40000 390.020
26.44000 361.906
26.48000 380.962
26.52000 384.368
26.56000 375.111
26.60000 380.999
26.64000 366.114
26.68000 385.554
26.72000 390.081
26.76000 384.362
26.80000 376.381
26.84000 400.162
26.88000 382.668
26.92000 367.971
26.96000 375.084
27.00000 369.435
27.04000 361.521
27.08000 374.034
27.12000 383.697
27.16000 358.221
27.20000 369.118
27.24000 355.461
27.28000 355.230
27.32000 367.804
27.36000 366.043
27.40000 353.923
27.44000 362.406
27.48000 385.464
27.52000 373.328
27.56000 359.236
27.60000 371.878
27.64000 370.136
27.68000 356.995
27.72000 377.009
27.76000 363.749
27.80000 373.436
27.84000 366.143
27.88000 368.654
27.92000 350.792
27.96000 364.648
28.00000 368.827
28.04000 360.531
28.08000 371.378
28.12000 360.145
28.16000 356.172
28.20000 370.590
28.24000 348.815
28.28000 345.998
28.32000 354.480
28.36000 352.938
28.40000 382.828
28.44000 368.851
28.48000 353.054
28.52000 355.394
28.56000 347.822
28.60000 381.090
28.64000 349.550
28.68000 339.539
28.72000 348.885
28.76000 343.982
28.80000 352.724
28.84000 363.182
28.88000 339.677
28.92000 346.700
28.96000 354.631
29.00000 353.250
29.04000 363.488
29.08000 365.422
29.12000 365.550
29.16000 341.298
29.20000 346.829
29.24000 359.881
29.28000 365.976
29.32000 347.814
29.36000 344.804
29.40000 330.169
29.44000 338.449
29.48000 357.099
29.52000 364.238
29.56000 338.671
29.60000 352.370
29.64000 348.157
29.68000 356.840
29.72000 345.810
29.76000 349.982
29.80000 354.816
29.84000 362.310
29.88000 351.928
29.92000 363.119
29.96000 380.727
30.00000 380.059
30.04000 375.661
30.08000 385.175
30.12000 372.972
30.16000 377.106
30.20000 381.514
30.24000 370.963
30.28000 373.284
30.32000 352.536
30.36000 357.381
30.40000 356.315
30.44000 356.013
30.48000 360.466
30.52000 354.709
30.56000 360.117
30.60000 360.231
30.64000 367.719
30.68000 373.086
30.72000 366.384
30.76000 367.176
30.80000 375.007
30.84000 373.171
30.88000 383.510
30.92000 396.793
30.96000 405.600
31.00000 448.672
31.04000 466.867
31.08000 508.400
31.12000 572.411
31.16000 654.124
31.20000 754.637
31.24000 889.498
31.28000 1001.982
31.32000 1076.499
31.36000 1146.852
31.40000 1211.660
31.44000 1142.008
31.48000 1068.537
31.52000 974.446
31.56000 846.375
31.60000 716.774
31.64000 610.424
31.68000 530.196
31.72000 479.143
31.76000 434.737
31.80000 419.117
31.84000 394.835
31.88000 378.860
31.92000 374.232
31.96000 378.469
32.00000 352.609
32.04000 346.645
32.08000 337.310
32.12000 345.857
32.16000 319.800
32.20000 325.011
32.24000 317.171
32.28000 339.803
32.32000 320.231
32.36000 316.774
32.40000 325.043
32.44000 322.363
32.48000 317.235
32.52000 306.606
32.56000 313.636
32.60000 316.656
32.64000 306.689
32.68000 314.793
32.72000 289.415
32.76000 318.430
32.80000 328.816
32.84000 389.288
32.88000 453.640
32.92000 506.443
32.96000 527.746
33.00000 530.627
33.04000 502.720
33.08000 432.117
33.12000 378.270
33.16000 338.564
33.20000 289.386
33.24000 295.147
33.28000 301.767
33.32000 293.338
33.36000 292.707
33.40000 281.786
33.44000 290.967
33.48000 288.360
33.52000 290.922
33.56000 297.469
33.60000 302.873
33.64000 288.858
33.68000 296.486
33.72000 285.758
33.76000 286.805
33.80000 298.862
33.84000 299.660
33.88000 290.641
33.92000 308.970
33.96000 298.750
34.00000 311.062
34.04000 320.076
34.08000 322.091
34.12000 303.611
34.16000 317.222
34.20000 299.638
34.24000 332.531
34.28000 332.781
34.32000 330.925
34.36000 330.908
34.40000 321.903
34.44000 314.658
34.48000 331.524
34.52000 308.969
34.56000 309.285
34.60000 315.869
34.64000 300.824
34.68000 301.009
34.72000 303.644
34.76000 301.934
34.80000 278.624
34.84000 278.030
34.88000 289.280
34.92000 284.941
34.96000 292.146
35.00000 283.990
35.04000 265.497
35.08000 278.333
35.12000 266.604
35.16000 276.423
35.20000 267.255
35.24000 259.227
35.28000 257.822
35.32000 263.482
35.36000 262.233
35.40000 255.912
35.44000 251.395
35.48000 256.601
35.52000 255.511
35.56000 267.319
35.60000 270.073
35.64000 270.856
35.68000 252.088
35.72000 266.274
35.76000 265.442
35.80000 250.615
35.84000 259.707
35.88000 254.397
35.92000 245.645
35.96000 239.063
36.00000 263.678
36.04000 259.296
36.08000 273.123
36.12000 247.948
36.16000 262.888
36.20000 256.050
36.24000 252.485
36.28000 250.499
36.32000 251.225
36.36000 249.397
36.40000 253.302
36.44000 256.468
36.48000 253.869
36.52000 264.223
36.56000 250.081
36.60000 245.885
36.64000 260.494
36.68000 250.677
36.72000 262.326
36.76000 254.074
36.80000 246.031
36.84000 274.519
36.88000 256.387
36.92000 277.529
36.96000 272.592
37.00000 278.468
37.04000 274.306
37.08000 258.964
37.12000 268.489
37.16000 277.976
37.20000 255.982
37.24000 259.455
37.28000 249.061
37.32000 246.391
37.36000 265.557
37.40000 249.064
37.44000 244.415
37.48000 248.686
37.52000 254.731
37.56000 247.893
37.60000 246.221
37.64000 256.927
37.68000 251.442
37.72000 250.454
37.76000 253.599
37.80000 252.703
37.84000 257.743
37.88000 244.643
37.92000 247.194
37.96000 245.743
38.00000 257.951
38.04000 250.917
38.08000 246.182
38.12000 248.864
38.16000 225.921
38.20000 248.994
38.24000 266.174
38.28000 262.185
38.32000 259.886
38.36000 300.063
38.40000 310.145
38.44000 351.692
38.48000 407.549
38.52000 500.493
38.56000 575.599
38.60000 683.833
38.64000 816.707
38.68000 866.790
38.72000 933.924
38.76000 942.789
38.80000 827.612
38.84000 776.797
38.88000 665.861
38.92000 556.613
38.96000 445.633
39.00000 378.904
39.04000 319.227
39.08000 274.383
39.12000 255.642
39.16000 243.201
39.20000 264.106
39.24000 234.223
39.28000 236.747
39.32000 233.892
39.36000 250.916
39.40000 243.904
39.44000 231.025
39.48000 236.158
39.52000 231.528
39.56000 231.827
39.60000 230.293
39.64000 238.761
39.68000 223.979
39.72000 224.833
39.76000 226.545
39.80000 228.808
39.84000 229.067
39.88000 236.205
39.92000 232.211
39.96000 220.736
40.00000 220.825
40.04000 232.046
40.08000 219.791
40.12000 218.299
40.16000 198.109
40.20000 226.138
40.24000 212.902
40.28000 224.411
40.32000 212.071
40.36000 209.588
40.40000 216.160
40.44000 213.029
40.48000 205.798
40.52000 219.164
40.56000 213.695
40.60000 210.939
40.64000 210.490
40.68000 221.994
40.72000 205.707
40.76000 209.138
40.80000 204.921
40.84000 216.405
40.88000 218.502
40.92000 210.318
40.96000 214.776
41.00000 230.555
41.04000 201.950
41.08000 214.579
41.12000 232.594
41.16000 217.036
41.20000 188.324
41.24000 200.372
41.28000 209.304
41.32000 213.135
41.36000 204.214
41.40000 207.209
41.44000 203.483
41.48000 211.743
41.52000 203.525
41.56000 213.058
41.60000 206.661
41.64000 205.130
41.68000 205.090
41.72000 202.653
41.76000 204.659
41.80000 216.260
41.84000 208.953
41.88000 203.301
41.92000 206.925
41.96000 205.748
42.00000 213.653
42.04000 206.085
42.08000 215.114
42.12000 203.588
42.16000 210.684
42.20000 215.345
42.24000 209.846
42.28000 202.910
42.32000 199.559
42.36000 213.060
42.40000 218.484
42.44000 213.299
42.48000 218.492
42.52000 212.480
42.56000 202.136
42.60000 205.836
42.64000 210.494
42.68000 201.721
42.72000 211.689
42.76000 202.954
42.80000 198.482
42.84000 195.418
42.88000 195.970
42.92000 202.806
42.96000 195.918
43.00000 212.840
43.04000 199.510
43.08000 206.567
43.12000 199.218
43.16000 203.906
43.20000 197.471
43.24000 196.162
43.28000 206.725
43.32000 191.550
43.36000 203.754
43.40000 183.129
43.44000 187.073
43.48000 194.918
43.52000 187.202
43.56000 207.855
43.60000 197.478
43.64000 193.471
43.68000 202.427
43.72000 194.698
43.76000 191.841
43.80000 185.270
43.84000 195.340
43.88000 190.703
43.92000 187.411
43.96000 193.578
44.00000 192.499
44.04000 186.117
44.08000 203.897
44.12000 192.040
44.16000 191.872
44.20000 186.337
44.24000 185.432
44.28000 211.065
44.32000 185.001
44.36000 193.975
44.40000 182.968
44.44000 211.362
44.48000 205.566
44.52000 210.275
44.56000 206.300
44.60000 207.133
44.64000 218.291
44.68000 216.634
44.72000 209.362
44.76000 231.005
44.80000 217.853
44.84000 230.177
44.88000 242.181
44.92000 232.028
44.96000 234.486
45.00000 238.612
45.04000 257.745
45.08000 243.503
45.12000 240.316
45.16000 247.401
45.20000 236.573
45.24000 226.266
45.28000 237.833
45.32000 224.908
45.36000 229.846
45.40000 220.015
45.44000 219.603
45.48000 208.480
45.52000 214.280
45.56000 211.246
45.60000 208.975
45.64000 202.337
45.68000 197.494
45.72000 197.300
45.76000 191.356
45.80000 182.979
45.84000 187.647
45.88000 180.430
45.92000 191.839
45.96000 172.302
46.00000 178.904
46.04000 184.757
46.08000 182.839
46.12000 181.419
46.16000 172.216
46.20000 176.286
46.24000 180.340
46.28000 165.924
46.32000 174.938
46.36000 176.469
46.40000 176.104
46.44000 174.281
46.48000 179.288
46.52000 165.941
46.56000 175.171
46.60000 183.920
46.64000 169.635
46.68000 175.684
46.72000 170.766
46.76000 177.662
46.80000 177.802
46.84000 181.585
46.88000 177.714
46.92000 174.536
46.96000 165.393
47.00000 162.118
47.04000 180.043
47.08000 165.755
47.12000 170.500
47.16000 166.260
47.20000 168.465
47.24000 168.163
47.28000 160.500
47.32000 160.100
47.36000 161.519
47.40000 166.351
47.44000 159.055
47.48000 159.300
47.52000 180.072
47.56000 143.700
47.60000 161.851
47.64000 161.063
47.68000 161.522
47.72000 146.620
47.76000 154.301
47.80000 167.961
47.84000 152.382
47.88000 157.384
47.92000 163.913
47.96000 160.287
48.00000 153.355
48.04000 153.093
48.08000 157.627
48.12000 151.670
48.16000 161.043
48.20000 153.307
48.24000 159.064
48.28000 159.826
48.32000 154.645
48.36000 165.572
48.40000 154.120
48.44000 162.814
48.48000 150.865
48.52000 156.226
48.56000 154.461
48.60000 156.162
48.64000 151.663
48.68000 152.338
48.72000 153.391
48.76000 161.016
48.80000 149.304
48.84000 158.234
48.88000 152.387
48.92000 156.362
48.96000 156.014
49.00000 150.710
49.04000 150.317
49.08000 157.216
49.12000 152.451
49.16000 147.393
49.20000 158.006
49.24000 144.321
49.28000 147.343
49.32000 151.210
49.36000 151.425
49.40000 149.003
49.44000 154.557
49.48000 149.974
49.52000 160.938
49.56000 153.086
49.60000 148.288
49.64000 149.544
49.68000 141.547
49.72000 150.809
49.76000 154.434
49.80000 153.704
49.84000 157.667
49.88000 152.464
49.92000 148.318
49.96000 149.740
50.00000 144.873
50.04000 153.326
50.08000 143.165
50.12000 158.757
50.16000 148.513
50.20000 145.778
50.24000 160.597
50.28000 147.552
50.32000 167.746
50.36000 156.962
50.40000 162.189
50.44000 158.423
50.48000 151.534
50.52000 170.089
50.56000 156.342
50.60000 157.004
50.64000 166.532
50.68000 158.771
50.72000 153.082
50.76000 161.793
50.80000 163.033
50.84000 146.623
50.88000 156.987
50.92000 164.272
50.96000 156.222
51.00000 151.693
51.04000 144.497
51.08000 145.615
51.12000 153.909
51.16000 150.521
51.20000 143.438
51.24000 145.416
51.28000 150.900
51.32000 147.222
51.36000 144.922
51.40000 149.534
51.44000 148.940
51.48000 144.147
51.52000 135.109
51.56000 136.055
51.60000 139.310
51.64000 136.455
51.68000 136.806
51.72000 144.628
51.76000 152.157
51.80000 151.308
51.84000 141.174
51.88000 128.735
51.92000 131.839
51.96000 135.302
52.00000 143.882
52.04000 140.119
52.08000 137.632
52.12000 146.364
52.16000 133.041
52.20000 141.189
52.24000 143.644
52.28000 134.383
52.32000 144.848
52.36000 136.600
52.40000 131.498
52.44000 145.178
52.48000 140.804
52.52000 143.315
52.56000 130.604
52.60000 130.806
52.64000 136.537
52.68000 131.798
52.72000 123.859
52.76000 138.137
52.80000 137.287
52.84000 138.519
52.88000 144.636
52.92000 139.553
52.96000 130.021
53.00000 136.024
53.04000 139.004
53.08000 142.689
53.12000 144.065
53.16000 142.137
53.20000 148.541
53.24000 149.280
53.28000 139.348
53.32000 156.009
53.36000 150.672
53.40000 155.260
53.44000 153.407
53.48000 157.182
53.52000 155.915
53.56000 153.387
53.60000 150.543
53.64000 160.109
53.68000 141.672
53.72000 146.706
53.76000 143.840
53.80000 144.049
53.84000 138.465
53.88000 143.859
53.92000 152.416
53.96000 136.362
54.00000 138.512
54.04000 127.994
54.08000 137.751
54.12000 143.571
54.16000 140.884
54.20000 134.807
54.24000 133.130
54.28000 132.396
54.32000 131.714
54.36000 133.753
54.40000 148.250
54.44000 137.052
54.48000 137.770
54.52000 139.242
54.56000 145.046
54.60000 141.729
54.64000 141.115
54.68000 130.435
54.72000 141.683
54.76000 138.449
54.80000 144.791
54.84000 136.708
54.88000 135.027
54.92000 146.740
54.96000 139.973
55.00000 136.732
55.04000 150.625
55.08000 144.196
55.12000 138.605
55.16000 143.389
55.20000 150.708
55.24000 141.280
55.28000 150.243
55.32000 161.925
55.36000 162.826
55.40000 170.915
55.44000 170.167
55.48000 179.078
55.52000 193.385
55.56000 208.699
55.60000 214.980
55.64000 256.626
55.68000 281.739
55.72000 324.877
55.76000 365.147
55.80000 425.676
55.84000 469.573
55.88000 497.156
55.92000 517.471
55.96000 558.873
56.00000 548.236
56.04000 527.561
56.08000 470.755
56.12000 419.479
56.16000 388.943
56.20000 320.540
56.24000 310.651
56.28000 261.664
56.32000 222.031
56.36000 201.223
56.40000 189.550
56.44000 168.643
56.48000 165.361
56.52000 155.612
56.56000 158.758
56.60000 134.421
56.64000 138.579
56.68000 137.516
56.72000 141.612
56.76000 141.066
56.80000 128.091
56.84000 130.401
56.88000 125.110
56.92000 129.424
56.96000 124.979
57.00000 121.496
57.04000 126.252
57.08000 124.589
57.12000 121.860
57.16000 124.054
57.20000 132.725
57.24000 121.163
57.28000 121.507
57.32000 127.004
57.36000 130.679
57.40000 128.004
57.44000 121.146
57.48000 112.922
57.52000 131.384
57.56000 130.760
57.60000 123.655
57.64000 118.477
57.68000 127.484
57.72000 130.204
57.76000 123.164
57.80000 114.498
57.84000 126.593
57.88000 126.539
57.92000 131.618
57.96000 120.852
58.00000 111.733
58.04000 124.082
58.08000 123.207
58.12000 123.799
58.16000 125.262
58.20000 120.529
58.24000 126.474
58.28000 127.508
58.32000 121.655
58.36000 122.290
58.40000 119.678
58.44000 120.738
58.48000 121.938
58.52000 116.802
58.56000 117.685
58.60000 120.634
58.64000 119.901
58.68000 123.479
58.72000 122.384
58.76000 127.799
58.80000 115.523
58.84000 118.024
58.88000 114.928
58.92000 116.680
58.96000 118.388
59.00000 117.179
59.04000 125.567
59.08000 117.998
59.12000 113.965
59.16000 114.509
59.20000 120.735
59.24000 110.862
59.28000 115.793
59.32000 121.130
59.36000 121.682
59.40000 121.585
59.44000 109.840
59.48000 112.818
59.52000 115.685
59.56000 118.093
59.60000 114.100
59.64000 123.691
59.68000 122.740
59.72000 116.447
59.76000 119.254
59.80000 118.340
59.84000 116.832
59.88000 116.898
59.92000 127.413
59.96000 118.205
60.00000 111.539
60.04000 111.762
60.08000 114.049
60.12000 110.644
60.16000 115.952
60.20000 112.838
60.24000 116.828
60.28000 114.842
60.32000 113.082
60.36000 107.413
60.40000 111.056
60.44000 114.551
60.48000 117.490
60.52000 112.226
60.56000 115.431
60.60000 118.292
60.64000 107.829
60.68000 125.886
60.72000 117.609
60.76000 120.527
60.80000 118.165
60.84000 122.394
60.88000 125.043
60.92000 114.713
60.96000 118.089
61.00000 124.741
61.04000 124.725
61.08000 118.238
61.12000 123.624
61.16000 119.797
61.20000 123.879
61.24000 124.786
61.28000 123.227
61.32000 127.641
61.36000 123.576
61.40000 122.888
61.44000 131.968
61.48000 130.625
61.52000 153.056
61.56000 187.381
61.60000 242.945
61.64000 274.967
61.68000 298.926
61.72000 288.580
61.76000 290.701
61.80000 215.096
61.84000 168.289
61.88000 145.303
61.92000 134.918
61.96000 117.085
62.00000 117.223
62.04000 130.273
62.08000 132.473
62.12000 130.204
62.16000 119.895
62.20000 114.995
62.24000 127.568
62.28000 127.725
62.32000 126.422
62.36000 122.095
62.40000 133.117
62.44000 133.743
62.48000 121.613
62.52000 124.234
62.56000 126.915
62.60000 134.587
62.64000 127.616
62.68000 125.800
62.72000 136.328
62.76000 125.267
62.80000 128.987
62.84000 126.650
62.88000 120.206
62.92000 119.993
62.96000 124.509
63.00000 136.899
63.04000 137.925
63.08000 132.408
63.12000 131.917
63.16000 130.685
63.20000 126.020
63.24000 137.865
63.28000 134.606
63.32000 143.840
63.36000 136.852
63.40000 126.530
63.44000 130.250
63.48000 126.796
63.52000 135.735
63.56000 135.023
63.60000 126.452
63.64000 138.813
63.68000 130.558
63.72000 138.027
63.76000 139.896
63.80000 148.636
63.84000 141.628
63.88000 136.564
63.92000 145.307
63.96000 146.440
64.00000 136.767
64.04000 149.920
64.08000 144.220
64.12000 140.545
64.16000 143.219
64.20000 148.168
64.24000 142.834
64.28000 147.091
64.32000 153.789
64.36000 151.639
64.40000 141.084
64.44000 159.858
64.48000 163.668
64.52000 158.959
64.56000 161.047
64.60000 155.919
64.64000 165.575
64.68000 164.338
64.72000 174.988
64.76000 171.788
64.80000 174.034
64.84000 176.042
64.88000 175.527
64.92000 182.468
64.96000 184.684
65.00000 178.339
65.04000 188.816
65.08000 187.191
65.12000 204.786
65.16000 204.124
65.20000 200.116
65.24000 213.429
65.28000 220.184
65.32000 229.868
65.36000 248.594
65.40000 239.979
65.44000 257.260
65.48000 272.022
65.52000 286.040
65.56000 317.393
65.60000 356.007
65.64000 424.235
65.68000 571.945
65.72000 935.743
65.76000 1374.553
65.80000 1732.095
65.84000 1892.108
65.88000 1927.293
65.92000 1841.870
65.96000 1502.218
66.00000 982.153
66.04000 634.207
66.08000 458.853
66.12000 393.459
66.16000 375.371
66.20000 368.401
66.24000 384.754
66.28000 439.114
66.32000 554.957
66.36000 594.939
66.40000 613.539
66.44000 618.335
66.48000 591.846
66.52000 534.962
66.56000 430.734
66.60000 369.020
66.64000 357.588
66.68000 344.356
66.72000 359.745
66.76000 337.306
66.80000 347.497
66.84000 367.059
66.88000 350.332
66.92000 361.747
66.96000 344.920
67.00000 362.467
67.04000 371.820
67.08000 367.969
67.12000 377.337
67.16000 387.703
67.20000 376.894
67.24000 428.202
67.28000 389.294
67.32000 378.028
67.36000 402.508
67.40000 404.381
67.44000 420.747
67.48000 407.704
67.52000 431.186
67.56000 436.184
67.60000 419.560
67.64000 439.059
67.68000 455.949
67.72000 446.919
67.76000 462.251
67.80000 455.737
67.84000 466.054
67.88000 475.794
67.92000 489.565
67.96000 475.607
68.00000 514.836
68.04000 509.412
68.08000 498.332
68.12000 505.807
68.16000 531.268
68.20000 562.296
68.24000 548.113
68.28000 585.314
68.32000 570.452
68.36000 605.086
68.40000 622.233
68.44000 622.359
68.48000 683.432
68.52000 668.703
68.56000 740.157
68.60000 814.713
68.64000 943.520
68.68000 1106.089
68.72000 1279.999
68.76000 1434.425
68.80000 1585.479
68.84000 1829.348
68.88000 2233.083
68.92000 3376.525
68.96000 9347.487
69.00000 21427.707
69.04000 33793.563
69.08000 40134.223
69.12000 42829.605
69.16000 45740.633
69.20000 45061.551
69.24000 35688.383
69.28000 26498.150
69.32000 21782.648
69.36000 20528.340
69.40000 16942.305
69.44000 10433.783
69.48000 4647.483
69.52000 2047.322
69.56000 1275.663
69.60000 1050.861
69.64000 904.299
69.68000 771.538
69.72000 700.864
69.76000 681.833
69.80000 617.719
69.84000 588.645
69.88000 559.907
69.92000 519.147
69.96000 515.046
70.00000 500.801