File: XRD/XRD/07-10-2025 Dep 6/XY Data/BTO_Mapping_Theta2Theta_07-10-2025_001_03_20-000_0-000.xy
20.00000 482.616
20.04000 476.781
20.08000 476.643
20.12000 476.225
20.16000 500.377
20.20000 485.648
20.24000 466.016
20.28000 488.817
20.32000 470.956
20.36000 473.195
20.40000 476.293
20.44000 461.770
20.48000 476.373
20.52000 467.121
20.56000 448.344
20.60000 468.990
20.64000 471.219
20.68000 462.246
20.72000 461.606
20.76000 464.813
20.80000 469.081
20.84000 475.623
20.88000 462.766
20.92000 442.758
20.96000 467.590
21.00000 468.538
21.04000 462.060
21.08000 457.702
21.12000 463.230
21.16000 468.453
21.20000 461.678
21.24000 473.484
21.28000 455.335
21.32000 465.886
21.36000 426.644
21.40000 476.127
21.44000 462.414
21.48000 470.192
21.52000 468.150
21.56000 463.172
21.60000 449.979
21.64000 465.161
21.68000 466.679
21.72000 475.492
21.76000 486.291
21.80000 460.592
21.84000 474.834
21.88000 479.487
21.92000 506.319
21.96000 488.140
22.00000 497.282
22.04000 498.225
22.08000 482.166
22.12000 523.808
22.16000 506.246
22.20000 488.730
22.24000 473.075
22.28000 446.743
22.32000 472.507
22.36000 466.998
22.40000 455.620
22.44000 452.622
22.48000 454.979
22.52000 445.940
22.56000 439.165
22.60000 441.428
22.64000 438.722
22.68000 435.613
22.72000 447.669
22.76000 454.453
22.80000 440.197
22.84000 435.827
22.88000 440.632
22.92000 444.187
22.96000 443.829
23.00000 454.575
23.04000 440.675
23.08000 437.711
23.12000 445.151
23.16000 449.358
23.20000 463.725
23.24000 453.022
23.28000 443.987
23.32000 462.241
23.36000 441.800
23.40000 450.498
23.44000 448.912
23.48000 424.773
23.52000 431.364
23.56000 448.670
23.60000 446.434
23.64000 445.943
23.68000 474.806
23.72000 450.801
23.76000 484.183
23.80000 478.336
23.84000 496.558
23.88000 517.818
23.92000 526.727
23.96000 512.268
24.00000 522.457
24.04000 520.099
24.08000 498.152
24.12000 493.111
24.16000 489.577
24.20000 463.299
24.24000 458.500
24.28000 455.103
24.32000 448.090
24.36000 448.274
24.40000 419.000
24.44000 428.678
24.48000 424.645
24.52000 419.788
24.56000 397.386
24.60000 405.571
24.64000 418.215
24.68000 417.342
24.72000 406.406
24.76000 424.022
24.80000 408.222
24.84000 403.786
24.88000 415.638
24.92000 392.601
24.96000 406.083
25.00000 388.568
25.04000 398.174
25.08000 412.018
25.12000 402.744
25.16000 391.419
25.20000 396.775
25.24000 392.434
25.28000 412.069
25.32000 385.723
25.36000 402.378
25.40000 406.411
25.44000 387.193
25.48000 387.595
25.52000 380.754
25.56000 413.346
25.60000 380.694
25.64000 389.639
25.68000 391.917
25.72000 388.652
25.76000 397.308
25.80000 393.009
25.84000 384.816
25.88000 385.912
25.92000 401.999
25.96000 396.295
26.00000 414.354
26.04000 369.358
26.08000 397.783
26.12000 396.396
26.16000 392.226
26.20000 378.350
26.24000 390.360
26.28000 387.340
26.32000 371.382
26.36000 381.352
26.40000 391.111
26.44000 392.767
26.48000 378.868
26.52000 381.231
26.56000 382.288
26.60000 378.727
26.64000 377.119
26.68000 376.108
26.72000 363.221
26.76000 374.267
26.80000 370.258
26.84000 380.534
26.88000 373.059
26.92000 381.822
26.96000 384.063
27.00000 390.379
27.04000 368.346
27.08000 371.887
27.12000 380.344
27.16000 365.836
27.20000 398.432
27.24000 371.795
27.28000 379.853
27.32000 366.996
27.36000 369.912
27.40000 378.415
27.44000 363.751
27.48000 385.674
27.52000 375.655
27.56000 368.752
27.60000 361.814
27.64000 372.609
27.68000 345.765
27.72000 364.069
27.76000 374.043
27.80000 377.965
27.84000 375.343
27.88000 373.054
27.92000 365.554
27.96000 359.649
28.00000 358.987
28.04000 370.135
28.08000 351.084
28.12000 388.063
28.16000 378.175
28.20000 351.672
28.24000 356.440
28.28000 354.823
28.32000 365.803
28.36000 363.473
28.40000 379.048
28.44000 368.983
28.48000 368.755
28.52000 363.535
28.56000 353.317
28.60000 354.664
28.64000 343.027
28.68000 360.219
28.72000 346.322
28.76000 357.161
28.80000 369.669
28.84000 373.483
28.88000 340.911
28.92000 336.586
28.96000 353.685
29.00000 355.998
29.04000 365.669
29.08000 367.487
29.12000 361.600
29.16000 347.424
29.20000 338.895
29.24000 363.424
29.28000 339.667
29.32000 353.457
29.36000 344.716
29.40000 343.535
29.44000 353.792
29.48000 346.283
29.52000 350.143
29.56000 365.802
29.60000 367.518
29.64000 349.566
29.68000 355.501
29.72000 372.167
29.76000 344.738
29.80000 356.062
29.84000 371.019
29.88000 386.081
29.92000 385.178
29.96000 386.421
30.00000 379.544
30.04000 375.845
30.08000 377.922
30.12000 365.543
30.16000 357.314
30.20000 375.923
30.24000 372.292
30.28000 346.980
30.32000 371.123
30.36000 380.011
30.40000 371.838
30.44000 373.240
30.48000 376.357
30.52000 371.402
30.56000 364.956
30.60000 377.998
30.64000 374.210
30.68000 392.275
30.72000 381.688
30.76000 387.811
30.80000 405.216
30.84000 390.290
30.88000 407.892
30.92000 420.568
30.96000 440.938
31.00000 476.861
31.04000 491.038
31.08000 535.862
31.12000 599.596
31.16000 662.660
31.20000 766.261
31.24000 853.882
31.28000 887.777
31.32000 947.124
31.36000 998.387
31.40000 1028.036
31.44000 959.362
31.48000 906.377
31.52000 833.191
31.56000 710.115
31.60000 644.035
31.64000 582.133
31.68000 517.311
31.72000 495.280
31.76000 445.314
31.80000 416.691
31.84000 401.366
31.88000 397.008
31.92000 372.237
31.96000 352.553
32.00000 357.236
32.04000 369.520
32.08000 363.735
32.12000 355.364
32.16000 345.965
32.20000 348.004
32.24000 361.488
32.28000 344.395
32.32000 345.036
32.36000 339.170
32.40000 344.274
32.44000 337.894
32.48000 341.450
32.52000 327.412
32.56000 314.915
32.60000 305.900
32.64000 317.167
32.68000 307.614
32.72000 319.505
32.76000 325.215
32.80000 351.444
32.84000 393.483
32.88000 440.870
32.92000 489.612
32.96000 537.712
33.00000 541.216
33.04000 517.984
33.08000 456.805
33.12000 381.996
33.16000 326.883
33.20000 289.667
33.24000 294.401
33.28000 278.862
33.32000 301.112
33.36000 307.417
33.40000 293.072
33.44000 288.681
33.48000 318.293
33.52000 303.332
33.56000 292.727
33.60000 289.035
33.64000 303.152
33.68000 308.958
33.72000 303.780
33.76000 287.150
33.80000 291.074
33.84000 286.505
33.88000 295.258
33.92000 294.883
33.96000 311.944
34.00000 298.266
34.04000 299.137
34.08000 313.677
34.12000 310.440
34.16000 322.577
34.20000 313.672
34.24000 324.550
34.28000 321.535
34.32000 311.569
34.36000 316.169
34.40000 323.846
34.44000 323.135
34.48000 299.712
34.52000 308.740
34.56000 290.718
34.60000 304.645
34.64000 297.565
34.68000 303.739
34.72000 285.600
34.76000 296.041
34.80000 272.114
34.84000 276.358
34.88000 283.719
34.92000 277.314
34.96000 267.590
35.00000 276.946
35.04000 273.798
35.08000 260.424
35.12000 277.019
35.16000 276.836
35.20000 267.281
35.24000 264.013
35.28000 280.049
35.32000 274.292
35.36000 266.646
35.40000 256.045
35.44000 253.403
35.48000 270.064
35.52000 272.593
35.56000 262.373
35.60000 276.565
35.64000 268.869
35.68000 262.605
35.72000 257.360
35.76000 257.275
35.80000 257.556
35.84000 260.405
35.88000 246.910
35.92000 261.438
35.96000 267.062
36.00000 259.605
36.04000 255.228
36.08000 263.902
36.12000 250.071
36.16000 262.768
36.20000 254.264
36.24000 246.251
36.28000 244.052
36.32000 270.850
36.36000 260.070
36.40000 246.633
36.44000 257.385
36.48000 252.789
36.52000 251.516
36.56000 251.028
36.60000 257.994
36.64000 270.563
36.68000 259.821
36.72000 259.471
36.76000 260.216
36.80000 264.657
36.84000 253.352
36.88000 263.341
36.92000 257.622
36.96000 255.998
37.00000 265.633
37.04000 263.264
37.08000 267.490
37.12000 248.255
37.16000 260.173
37.20000 262.917
37.24000 262.226
37.28000 248.541
37.32000 255.603
37.36000 253.291
37.40000 245.917
37.44000 240.449
37.48000 259.771
37.52000 249.801
37.56000 258.167
37.60000 246.455
37.64000 251.819
37.68000 227.915
37.72000 239.333
37.76000 246.228
37.80000 251.679
37.84000 264.256
37.88000 250.256
37.92000 248.391
37.96000 247.094
38.00000 240.626
38.04000 238.451
38.08000 253.150
38.12000 255.276
38.16000 256.599
38.20000 263.684
38.24000 261.285
38.28000 270.612
38.32000 287.838
38.36000 290.647
38.40000 322.272
38.44000 353.713
38.48000 383.687
38.52000 433.023
38.56000 509.725
38.60000 592.685
38.64000 655.289
38.68000 681.265
38.72000 687.206
38.76000 656.209
38.80000 595.011
38.84000 559.572
38.88000 462.185
38.92000 411.573
38.96000 353.529
39.00000 316.600
39.04000 284.756
39.08000 267.419
39.12000 260.246
39.16000 257.068
39.20000 232.143
39.24000 241.038
39.28000 235.270
39.32000 241.467
39.36000 243.700
39.40000 230.409
39.44000 252.535
39.48000 235.548
39.52000 226.744
39.56000 238.552
39.60000 228.410
39.64000 231.814
39.68000 230.375
39.72000 237.002
39.76000 230.593
39.80000 241.587
39.84000 234.580
39.88000 233.642
39.92000 221.252
39.96000 236.452
40.00000 224.224
40.04000 222.408
40.08000 234.373
40.12000 220.228
40.16000 216.660
40.20000 218.231
40.24000 230.549
40.28000 217.086
40.32000 215.581
40.36000 205.937
40.40000 214.376
40.44000 212.742
40.48000 212.646
40.52000 214.976
40.56000 223.979
40.60000 215.077
40.64000 219.228
40.68000 221.034
40.72000 204.602
40.76000 226.993
40.80000 206.747
40.84000 212.091
40.88000 208.101
40.92000 223.662
40.96000 216.602
41.00000 211.577
41.04000 210.392
41.08000 218.737
41.12000 210.636
41.16000 198.739
41.20000 201.079
41.24000 205.017
41.28000 214.453
41.32000 200.549
41.36000 216.734
41.40000 204.464
41.44000 210.719
41.48000 203.066
41.52000 213.713
41.56000 212.148
41.60000 215.035
41.64000 211.167
41.68000 208.403
41.72000 200.155
41.76000 199.707
41.80000 202.813
41.84000 200.676
41.88000 204.387
41.92000 212.624
41.96000 214.686
42.00000 221.381
42.04000 212.512
42.08000 216.985
42.12000 223.813
42.16000 208.901
42.20000 209.413
42.24000 209.315
42.28000 209.531
42.32000 219.305
42.36000 214.940
42.40000 209.702
42.44000 205.854
42.48000 209.845
42.52000 208.609
42.56000 215.120
42.60000 203.872
42.64000 220.447
42.68000 210.341
42.72000 200.522
42.76000 216.133
42.80000 196.327
42.84000 203.379
42.88000 202.834
42.92000 199.520
42.96000 199.364
43.00000 201.855
43.04000 214.864
43.08000 206.628
43.12000 205.676
43.16000 197.168
43.20000 193.309
43.24000 189.628
43.28000 198.719
43.32000 198.427
43.36000 202.370
43.40000 191.789
43.44000 200.063
43.48000 198.257
43.52000 200.202
43.56000 199.492
43.60000 206.300
43.64000 202.921
43.68000 192.880
43.72000 188.595
43.76000 193.119
43.80000 188.673
43.84000 181.767
43.88000 190.198
43.92000 189.252
43.96000 193.400
44.00000 187.428
44.04000 184.392
44.08000 189.812
44.12000 191.917
44.16000 198.717
44.20000 201.736
44.24000 185.784
44.28000 188.558
44.32000 203.636
44.36000 206.049
44.40000 194.358
44.44000 199.254
44.48000 211.500
44.52000 207.840
44.56000 206.401
44.60000 210.744
44.64000 208.888
44.68000 207.347
44.72000 209.883
44.76000 218.892
44.80000 219.569
44.84000 218.389
44.88000 211.964
44.92000 225.753
44.96000 221.167
45.00000 223.112
45.04000 230.217
45.08000 222.982
45.12000 219.546
45.16000 220.257
45.20000 229.302
45.24000 212.156
45.28000 217.636
45.32000 209.048
45.36000 207.827
45.40000 208.817
45.44000 208.339
45.48000 209.388
45.52000 187.196
45.56000 194.417
45.60000 197.012
45.64000 183.502
45.68000 192.055
45.72000 184.012
45.76000 186.756
45.80000 182.179
45.84000 176.047
45.88000 176.691
45.92000 177.117
45.96000 185.998
46.00000 176.299
46.04000 174.226
46.08000 175.070
46.12000 171.358
46.16000 175.571
46.20000 186.554
46.24000 181.950
46.28000 168.407
46.32000 179.576
46.36000 182.887
46.40000 166.519
46.44000 171.266
46.48000 173.082
46.52000 170.875
46.56000 168.895
46.60000 180.714
46.64000 172.306
46.68000 182.357
46.72000 176.582
46.76000 173.226
46.80000 172.703
46.84000 179.884
46.88000 178.475
46.92000 171.464
46.96000 162.442
47.00000 178.076
47.04000 175.845
47.08000 163.993
47.12000 175.568
47.16000 165.517
47.20000 169.493
47.24000 175.894
47.28000 165.688
47.32000 166.509
47.36000 169.364
47.40000 161.422
47.44000 167.577
47.48000 163.208
47.52000 169.556
47.56000 171.864
47.60000 159.187
47.64000 172.023
47.68000 161.608
47.72000 165.853
47.76000 155.172
47.80000 156.487
47.84000 163.365
47.88000 168.120
47.92000 165.914
47.96000 155.459
48.00000 159.471
48.04000 155.985
48.08000 159.170
48.12000 150.746
48.16000 165.047
48.20000 149.579
48.24000 159.719
48.28000 166.916
48.32000 157.812
48.36000 173.801
48.40000 149.575
48.44000 156.579
48.48000 157.663
48.52000 162.917
48.56000 161.925
48.60000 159.150
48.64000 161.528
48.68000 158.098
48.72000 154.693
48.76000 154.369
48.80000 156.816
48.84000 160.864
48.88000 161.318
48.92000 149.640
48.96000 156.941
49.00000 168.418
49.04000 163.513
49.08000 154.276
49.12000 156.579
49.16000 160.556
49.20000 151.535
49.24000 158.723
49.28000 156.490
49.32000 162.349
49.36000 159.037
49.40000 149.811
49.44000 154.910
49.48000 161.693
49.52000 150.367
49.56000 154.172
49.60000 156.705
49.64000 157.844
49.68000 156.097
49.72000 158.715
49.76000 153.761
49.80000 146.150
49.84000 147.298
49.88000 151.861
49.92000 151.241
49.96000 145.397
50.00000 160.988
50.04000 155.093
50.08000 151.254
50.12000 157.496
50.16000 141.669
50.20000 157.353
50.24000 159.219
50.28000 146.465
50.32000 148.927
50.36000 158.025
50.40000 158.267
50.44000 155.989
50.48000 169.364
50.52000 161.092
50.56000 159.818
50.60000 164.636
50.64000 177.241
50.68000 163.671
50.72000 175.019
50.76000 155.231
50.80000 160.454
50.84000 155.572
50.88000 157.647
50.92000 154.318
50.96000 156.134
51.00000 150.521
51.04000 162.174
51.08000 146.833
51.12000 149.065
51.16000 149.131
51.20000 147.871
51.24000 143.431
51.28000 149.425
51.32000 140.848
51.36000 153.624
51.40000 149.708
51.44000 134.378
51.48000 134.510
51.52000 148.357
51.56000 154.848
51.60000 139.125
51.64000 139.146
51.68000 147.676
51.72000 148.699
51.76000 144.093
51.80000 144.989
51.84000 144.244
51.88000 145.346
51.92000 137.446
51.96000 142.694
52.00000 142.057
52.04000 144.722
52.08000 141.267
52.12000 147.390
52.16000 146.827
52.20000 143.888
52.24000 139.265
52.28000 149.837
52.32000 135.824
52.36000 135.102
52.40000 140.630
52.44000 132.552
52.48000 140.170
52.52000 145.604
52.56000 144.587
52.60000 142.768
52.64000 148.772
52.68000 140.122
52.72000 144.278
52.76000 149.493
52.80000 135.045
52.84000 145.744
52.88000 136.132
52.92000 140.215
52.96000 142.115
53.00000 146.332
53.04000 132.938
53.08000 138.276
53.12000 156.506
53.16000 141.393
53.20000 134.530
53.24000 140.849
53.28000 141.414
53.32000 138.100
53.36000 149.069
53.40000 144.259
53.44000 144.866
53.48000 143.768
53.52000 145.883
53.56000 147.153
53.60000 142.304
53.64000 139.850
53.68000 142.386
53.72000 139.821
53.76000 144.152
53.80000 137.790
53.84000 132.210
53.88000 139.816
53.92000 137.319
53.96000 159.365
54.00000 144.634
54.04000 134.005
54.08000 130.741
54.12000 133.241
54.16000 155.912
54.20000 132.358
54.24000 134.876
54.28000 148.886
54.32000 135.085
54.36000 137.316
54.40000 138.757
54.44000 134.925
54.48000 149.083
54.52000 132.698
54.56000 136.256
54.60000 140.500
54.64000 141.094
54.68000 141.991
54.72000 139.442
54.76000 136.729
54.80000 149.051
54.84000 144.500
54.88000 150.262
54.92000 137.739
54.96000 144.176
55.00000 145.158
55.04000 151.113
55.08000 143.541
55.12000 137.239
55.16000 146.391
55.20000 147.854
55.24000 154.527
55.28000 157.781
55.32000 149.801
55.36000 157.041
55.40000 169.184
55.44000 164.960
55.48000 176.046
55.52000 179.916
55.56000 194.834
55.60000 213.357
55.64000 229.707
55.68000 242.766
55.72000 274.620
55.76000 273.362
55.80000 287.810
55.84000 300.000
55.88000 315.396
55.92000 330.325
55.96000 332.387
56.00000 320.660
56.04000 314.707
56.08000 292.957
56.12000 266.499
56.16000 267.810
56.20000 239.268
56.24000 216.319
56.28000 205.263
56.32000 191.395
56.36000 182.393
56.40000 182.540
56.44000 174.211
56.48000 171.598
56.52000 151.701
56.56000 163.061
56.60000 152.398
56.64000 150.758
56.68000 136.261
56.72000 140.362
56.76000 142.748
56.80000 133.289
56.84000 138.124
56.88000 127.318
56.92000 137.976
56.96000 136.332
57.00000 138.330
57.04000 132.716
57.08000 128.607
57.12000 136.113
57.16000 135.598
57.20000 138.493
57.24000 122.252
57.28000 130.281
57.32000 131.513
57.36000 129.306
57.40000 123.474
57.44000 127.804
57.48000 128.305
57.52000 122.218
57.56000 128.997
57.60000 122.069
57.64000 133.442
57.68000 125.707
57.72000 135.325
57.76000 125.714
57.80000 131.592
57.84000 123.570
57.88000 131.007
57.92000 123.606
57.96000 119.089
58.00000 122.254
58.04000 124.372
58.08000 125.032
58.12000 130.351
58.16000 117.276
58.20000 131.158
58.24000 121.090
58.28000 125.768
58.32000 123.742
58.36000 120.967
58.40000 120.009
58.44000 118.461
58.48000 121.977
58.52000 118.922
58.56000 118.905
58.60000 116.233
58.64000 121.593
58.68000 119.968
58.72000 119.580
58.76000 119.744
58.80000 116.810
58.84000 118.028
58.88000 122.873
58.92000 119.677
58.96000 111.647
59.00000 122.543
59.04000 124.965
59.08000 123.821
59.12000 122.590
59.16000 113.351
59.20000 113.884
59.24000 123.995
59.28000 119.857
59.32000 125.871
59.36000 120.227
59.40000 117.667
59.44000 123.030
59.48000 117.865
59.52000 117.800
59.56000 110.831
59.60000 118.417
59.64000 118.677
59.68000 116.474
59.72000 122.636
59.76000 126.892
59.80000 115.493
59.84000 124.807
59.88000 115.851
59.92000 121.109
59.96000 109.040
60.00000 114.600
60.04000 120.219
60.08000 116.103
60.12000 121.730
60.16000 123.104
60.20000 113.812
60.24000 113.300
60.28000 120.056
60.32000 132.074
60.36000 120.267
60.40000 127.334
60.44000 118.652
60.48000 111.399
60.52000 116.668
60.56000 125.151
60.60000 115.371
60.64000 112.424
60.68000 117.885
60.72000 124.615
60.76000 128.444
60.80000 128.386
60.84000 117.959
60.88000 127.193
60.92000 137.538
60.96000 123.557
61.00000 114.625
61.04000 124.305
61.08000 127.981
61.12000 131.846
61.16000 127.292
61.20000 126.981
61.24000 123.759
61.28000 123.998
61.32000 126.060
61.36000 128.404
61.40000 123.881
61.44000 137.399
61.48000 136.440
61.52000 147.908
61.56000 207.340
61.60000 258.255
61.64000 271.999
61.68000 295.455
61.72000 292.491
61.76000 287.518
61.80000 224.490
61.84000 177.201
61.88000 151.072
61.92000 146.684
61.96000 127.848
62.00000 132.352
62.04000 126.971
62.08000 125.569
62.12000 133.808
62.16000 124.275
62.20000 123.204
62.24000 122.108
62.28000 119.171
62.32000 120.198
62.36000 128.723
62.40000 124.719
62.44000 125.279
62.48000 121.611
62.52000 132.075
62.56000 137.955
62.60000 135.220
62.64000 135.675
62.68000 122.564
62.72000 125.901
62.76000 126.488
62.80000 128.769
62.84000 129.486
62.88000 128.098
62.92000 136.313
62.96000 131.872
63.00000 132.862
63.04000 126.626
63.08000 135.810
63.12000 131.033
63.16000 133.601
63.20000 142.813
63.24000 138.146
63.28000 138.145
63.32000 136.239
63.36000 139.685
63.40000 138.767
63.44000 135.502
63.48000 141.850
63.52000 145.028
63.56000 131.732
63.60000 132.186
63.64000 128.304
63.68000 138.988
63.72000 143.335
63.76000 142.034
63.80000 140.625
63.84000 141.676
63.88000 139.417
63.92000 128.457
63.96000 130.714
64.00000 145.318
64.04000 151.145
64.08000 149.210
64.12000 145.401
64.16000 147.761
64.20000 147.951
64.24000 158.517
64.28000 155.306
64.32000 153.699
64.36000 152.642
64.40000 158.252
64.44000 167.963
64.48000 158.022
64.52000 162.256
64.56000 156.965
64.60000 166.549
64.64000 158.191
64.68000 166.838
64.72000 166.440
64.76000 175.440
64.80000 171.607
64.84000 178.046
64.88000 185.133
64.92000 186.396
64.96000 180.203
65.00000 199.764
65.04000 187.615
65.08000 209.596
65.12000 200.409
65.16000 210.477
65.20000 224.437
65.24000 210.425
65.28000 217.727
65.32000 227.495
65.36000 235.236
65.40000 255.902
65.44000 274.248
65.48000 274.507
65.52000 279.228
65.56000 310.657
65.60000 344.253
65.64000 416.340
65.68000 545.107
65.72000 876.443
65.76000 1354.027
65.80000 1789.454
65.84000 1954.972
65.88000 2003.257
65.92000 1906.141
65.96000 1572.328
66.00000 1055.855
66.04000 656.765
66.08000 471.902
66.12000 387.883
66.16000 375.935
66.20000 370.459
66.24000 394.017
66.28000 457.806
66.32000 534.487
66.36000 606.292
66.40000 633.762
66.44000 629.034
66.48000 607.820
66.52000 564.511
66.56000 467.230
66.60000 392.151
66.64000 371.705
66.68000 370.585
66.72000 365.862
66.76000 346.109
66.80000 347.085
66.84000 356.939
66.88000 363.187
66.92000 362.473
66.96000 368.525
67.00000 370.416
67.04000 409.052
67.08000 381.152
67.12000 398.347
67.16000 401.659
67.20000 408.553
67.24000 401.383
67.28000 398.803
67.32000 390.934
67.36000 407.058
67.40000 410.541
67.44000 416.378
67.48000 427.810
67.52000 432.254
67.56000 436.675
67.60000 417.103
67.64000 439.595
67.68000 444.483
67.72000 457.500
67.76000 471.942
67.80000 459.564
67.84000 472.485
67.88000 455.984
67.92000 494.637
67.96000 495.583
68.00000 496.436
68.04000 510.764
68.08000 508.402
68.12000 541.732
68.16000 515.675
68.20000 564.689
68.24000 563.580
68.28000 571.080
68.32000 628.825
68.36000 623.277
68.40000 635.716
68.44000 629.333
68.48000 671.446
68.52000 705.250
68.56000 746.815
68.60000 830.787
68.64000 956.324
68.68000 1159.982
68.72000 1283.114
68.76000 1445.847
68.80000 1640.116
68.84000 1858.225
68.88000 2238.649
68.92000 3233.313
68.96000 8693.085
69.00000 20651.486
69.04000 33563.344
69.08000 40763.492
69.12000 43733.953
69.16000 46600.805
69.20000 46681.082
69.24000 38015.719
69.28000 27885.033
69.32000 22503.514
69.36000 21128.037
69.40000 17944.883
69.44000 11496.859
69.48000 5087.250
69.52000 2234.249
69.56000 1386.749
69.60000 1090.575
69.64000 906.919
69.68000 841.384
69.72000 736.509
69.76000 678.938
69.80000 633.611
69.84000 618.041
69.88000 588.857
69.92000 535.535
69.96000 497.105
70.00000 510.687