File: XRD/XRD/07-10-2025 Dep 6/XY Data/BTO_Mapping_Theta2Theta_07-10-2025_001_45_-20-000_-34-641.xy
20.00000 459.139
20.04000 482.973
20.08000 476.743
20.12000 464.323
20.16000 464.230
20.20000 462.572
20.24000 464.102
20.28000 452.484
20.32000 443.484
20.36000 464.192
20.40000 457.509
20.44000 497.929
20.48000 472.210
20.52000 477.736
20.56000 472.583
20.60000 474.997
20.64000 464.841
20.68000 448.139
20.72000 443.822
20.76000 473.269
20.80000 458.635
20.84000 459.931
20.88000 476.377
20.92000 499.191
20.96000 453.159
21.00000 467.262
21.04000 475.314
21.08000 477.740
21.12000 465.885
21.16000 462.593
21.20000 471.037
21.24000 458.252
21.28000 469.095
21.32000 465.021
21.36000 435.561
21.40000 451.616
21.44000 447.280
21.48000 453.519
21.52000 457.244
21.56000 459.118
21.60000 466.715
21.64000 479.822
21.68000 472.840
21.72000 497.836
21.76000 499.310
21.80000 523.715
21.84000 539.491
21.88000 560.471
21.92000 598.989
21.96000 613.130
22.00000 612.790
22.04000 608.272
22.08000 602.902
22.12000 563.018
22.16000 569.418
22.20000 539.254
22.24000 511.169
22.28000 503.008
22.32000 485.448
22.36000 488.934
22.40000 467.259
22.44000 462.001
22.48000 428.879
22.52000 456.291
22.56000 463.008
22.60000 446.813
22.64000 438.502
22.68000 434.923
22.72000 435.946
22.76000 427.766
22.80000 427.374
22.84000 436.149
22.88000 440.211
22.92000 437.384
22.96000 431.900
23.00000 436.336
23.04000 422.060
23.08000 435.108
23.12000 439.429
23.16000 425.024
23.20000 411.102
23.24000 421.022
23.28000 424.868
23.32000 425.572
23.36000 421.817
23.40000 421.527
23.44000 431.583
23.48000 442.616
23.52000 429.946
23.56000 425.242
23.60000 417.334
23.64000 431.482
23.68000 423.349
23.72000 435.790
23.76000 403.726
23.80000 425.955
23.84000 418.600
23.88000 408.779
23.92000 434.264
23.96000 415.268
24.00000 418.890
24.04000 414.569
24.08000 426.874
24.12000 433.931
24.16000 442.687
24.20000 417.951
24.24000 417.171
24.28000 414.445
24.32000 391.304
24.36000 414.162
24.40000 406.305
24.44000 409.967
24.48000 390.541
24.52000 399.996
24.56000 411.300
24.60000 391.128
24.64000 407.608
24.68000 399.300
24.72000 395.862
24.76000 407.991
24.80000 400.319
24.84000 413.294
24.88000 381.235
24.92000 398.011
24.96000 393.245
25.00000 405.402
25.04000 405.609
25.08000 405.445
25.12000 397.585
25.16000 399.017
25.20000 396.027
25.24000 399.172
25.28000 393.891
25.32000 387.803
25.36000 390.091
25.40000 398.428
25.44000 381.957
25.48000 399.252
25.52000 381.762
25.56000 384.581
25.60000 396.942
25.64000 391.094
25.68000 408.797
25.72000 380.310
25.76000 410.337
25.80000 406.427
25.84000 412.801
25.88000 382.192
25.92000 376.108
25.96000 393.590
26.00000 376.022
26.04000 372.796
26.08000 374.661
26.12000 398.505
26.16000 373.450
26.20000 388.810
26.24000 371.664
26.28000 389.968
26.32000 378.247
26.36000 384.617
26.40000 393.210
26.44000 375.515
26.48000 378.560
26.52000 374.631
26.56000 371.094
26.60000 373.352
26.64000 391.617
26.68000 379.276
26.72000 382.053
26.76000 386.996
26.80000 373.910
26.84000 375.480
26.88000 383.121
26.92000 376.759
26.96000 375.632
27.00000 380.572
27.04000 365.876
27.08000 359.448
27.12000 363.786
27.16000 388.810
27.20000 375.561
27.24000 380.890
27.28000 376.952
27.32000 361.923
27.36000 369.681
27.40000 367.496
27.44000 375.889
27.48000 372.469
27.52000 371.705
27.56000 357.277
27.60000 370.374
27.64000 368.604
27.68000 367.193
27.72000 365.328
27.76000 358.805
27.80000 350.967
27.84000 358.761
27.88000 360.298
27.92000 360.055
27.96000 347.452
28.00000 364.172
28.04000 371.113
28.08000 351.793
28.12000 361.263
28.16000 364.233
28.20000 370.228
28.24000 359.591
28.28000 360.481
28.32000 380.594
28.36000 372.401
28.40000 355.537
28.44000 357.415
28.48000 375.997
28.52000 368.958
28.56000 358.065
28.60000 361.088
28.64000 359.855
28.68000 355.540
28.72000 350.066
28.76000 357.686
28.80000 361.812
28.84000 357.969
28.88000 350.162
28.92000 360.966
28.96000 354.380
29.00000 359.508
29.04000 351.840
29.08000 347.971
29.12000 336.961
29.16000 353.034
29.20000 354.173
29.24000 307.971
29.28000 351.547
29.32000 348.904
29.36000 347.354
29.40000 350.200
29.44000 363.418
29.48000 361.523
29.52000 357.068
29.56000 352.469
29.60000 353.568
29.64000 358.022
29.68000 367.748
29.72000 376.091
29.76000 378.124
29.80000 404.700
29.84000 409.772
29.88000 423.113
29.92000 437.903
29.96000 467.324
30.00000 472.306
30.04000 453.113
30.08000 447.111
30.12000 428.559
30.16000 422.541
30.20000 398.793
30.24000 402.414
30.28000 394.659
30.32000 384.575
30.36000 406.851
30.40000 380.222
30.44000 384.241
30.48000 357.281
30.52000 390.411
30.56000 372.523
30.60000 365.701
30.64000 391.952
30.68000 375.269
30.72000 412.174
30.76000 396.751
30.80000 430.656
30.84000 418.250
30.88000 448.824
30.92000 479.624
30.96000 552.997
31.00000 652.732
31.04000 800.466
31.08000 996.213
31.12000 1258.880
31.16000 1616.521
31.20000 1957.976
31.24000 2353.479
31.28000 2683.626
31.32000 2919.317
31.36000 2984.049
31.40000 2826.586
31.44000 2529.687
31.48000 2176.983
31.52000 1720.173
31.56000 1361.739
31.60000 1069.658
31.64000 819.817
31.68000 629.234
31.72000 521.581
31.76000 472.450
31.80000 434.082
31.84000 401.564
31.88000 386.121
31.92000 369.007
31.96000 354.209
32.00000 359.085
32.04000 365.860
32.08000 339.679
32.12000 341.366
32.16000 332.197
32.20000 324.569
32.24000 326.889
32.28000 317.468
32.32000 327.545
32.36000 328.035
32.40000 327.873
32.44000 311.019
32.48000 329.481
32.52000 327.778
32.56000 330.370
32.60000 319.605
32.64000 336.406
32.68000 322.457
32.72000 321.470
32.76000 314.160
32.80000 337.841
32.84000 409.246
32.88000 464.144
32.92000 530.923
32.96000 539.497
33.00000 580.638
33.04000 532.263
33.08000 458.019
33.12000 378.784
33.16000 336.942
33.20000 299.882
33.24000 291.971
33.28000 297.472
33.32000 283.173
33.36000 293.143
33.40000 297.013
33.44000 291.140
33.48000 289.094
33.52000 278.192
33.56000 293.563
33.60000 284.525
33.64000 284.141
33.68000 280.958
33.72000 288.383
33.76000 288.977
33.80000 291.954
33.84000 273.334
33.88000 289.319
33.92000 288.586
33.96000 286.821
34.00000 269.381
34.04000 273.301
34.08000 282.974
34.12000 275.228
34.16000 278.610
34.20000 293.214
34.24000 295.486
34.28000 280.643
34.32000 281.935
34.36000 292.694
34.40000 284.296
34.44000 272.164
34.48000 280.211
34.52000 275.582
34.56000 272.720
34.60000 275.671
34.64000 279.511
34.68000 276.579
34.72000 284.330
34.76000 275.387
34.80000 279.224
34.84000 274.201
34.88000 278.388
34.92000 260.713
34.96000 264.166
35.00000 262.441
35.04000 256.641
35.08000 264.783
35.12000 276.378
35.16000 270.617
35.20000 273.717
35.24000 259.175
35.28000 276.673
35.32000 262.611
35.36000 266.514
35.40000 273.277
35.44000 265.682
35.48000 248.568
35.52000 271.179
35.56000 264.513
35.60000 271.009
35.64000 253.426
35.68000 269.196
35.72000 258.294
35.76000 252.359
35.80000 260.904
35.84000 245.426
35.88000 250.083
35.92000 257.150
35.96000 250.721
36.00000 256.195
36.04000 254.588
36.08000 244.634
36.12000 247.594
36.16000 248.552
36.20000 260.606
36.24000 252.047
36.28000 243.931
36.32000 250.314
36.36000 257.328
36.40000 239.619
36.44000 246.475
36.48000 251.129
36.52000 264.569
36.56000 234.871
36.60000 250.671
36.64000 258.519
36.68000 272.829
36.72000 261.811
36.76000 257.454
36.80000 275.722
36.84000 258.502
36.88000 271.898
36.92000 274.417
36.96000 274.630
37.00000 274.372
37.04000 259.370
37.08000 267.854
37.12000 265.407
37.16000 259.345
37.20000 270.175
37.24000 263.373
37.28000 260.388
37.32000 260.757
37.36000 254.228
37.40000 256.732
37.44000 245.716
37.48000 239.804
37.52000 254.178
37.56000 232.596
37.60000 249.755
37.64000 251.592
37.68000 244.295
37.72000 254.603
37.76000 237.718
37.80000 243.253
37.84000 240.192
37.88000 235.869
37.92000 250.327
37.96000 254.721
38.00000 250.852
38.04000 258.891
38.08000 235.913
38.12000 261.629
38.16000 265.772
38.20000 262.148
38.24000 276.812
38.28000 304.769
38.32000 316.978
38.36000 330.357
38.40000 385.341
38.44000 428.894
38.48000 496.601
38.52000 570.376
38.56000 602.150
38.60000 663.420
38.64000 683.640
38.68000 715.269
38.72000 726.246
38.76000 672.190
38.80000 612.919
38.84000 559.970
38.88000 507.132
38.92000 403.448
38.96000 361.794
39.00000 327.403
39.04000 301.284
39.08000 265.419
39.12000 250.235
39.16000 253.532
39.20000 233.523
39.24000 237.120
39.28000 255.747
39.32000 238.133
39.36000 229.745
39.40000 218.059
39.44000 233.155
39.48000 233.610
39.52000 225.324
39.56000 224.843
39.60000 213.252
39.64000 229.387
39.68000 227.882
39.72000 219.573
39.76000 242.071
39.80000 231.578
39.84000 227.465
39.88000 220.560
39.92000 234.874
39.96000 219.466
40.00000 225.594
40.04000 243.542
40.08000 210.930
40.12000 216.995
40.16000 202.911
40.20000 207.867
40.24000 226.043
40.28000 215.795
40.32000 209.637
40.36000 220.414
40.40000 220.578
40.44000 220.211
40.48000 210.652
40.52000 207.953
40.56000 208.928
40.60000 216.549
40.64000 206.792
40.68000 194.120
40.72000 212.745
40.76000 189.834
40.80000 215.924
40.84000 201.883
40.88000 210.979
40.92000 212.982
40.96000 205.903
41.00000 216.551
41.04000 219.992
41.08000 215.023
41.12000 205.829
41.16000 207.816
41.20000 206.222
41.24000 207.072
41.28000 208.163
41.32000 214.818
41.36000 204.720
41.40000 205.316
41.44000 203.717
41.48000 206.279
41.52000 197.096
41.56000 208.677
41.60000 208.337
41.64000 208.796
41.68000 199.776
41.72000 204.288
41.76000 208.467
41.80000 208.362
41.84000 203.705
41.88000 201.783
41.92000 206.330
41.96000 210.969
42.00000 204.906
42.04000 195.453
42.08000 204.421
42.12000 194.465
42.16000 210.592
42.20000 209.137
42.24000 206.550
42.28000 192.149
42.32000 211.069
42.36000 205.872
42.40000 208.597
42.44000 198.210
42.48000 188.580
42.52000 197.705
42.56000 203.775
42.60000 194.679
42.64000 191.299
42.68000 191.429
42.72000 203.630
42.76000 203.974
42.80000 193.169
42.84000 205.395
42.88000 203.419
42.92000 207.067
42.96000 204.916
43.00000 209.767
43.04000 194.405
43.08000 190.514
43.12000 196.767
43.16000 199.007
43.20000 198.079
43.24000 202.464
43.28000 202.133
43.32000 184.955
43.36000 187.755
43.40000 191.120
43.44000 195.560
43.48000 199.092
43.52000 182.116
43.56000 190.894
43.60000 193.518
43.64000 202.032
43.68000 184.398
43.72000 200.928
43.76000 197.553
43.80000 191.473
43.84000 201.804
43.88000 191.733
43.92000 187.746
43.96000 187.410
44.00000 182.292
44.04000 189.273
44.08000 198.761
44.12000 192.009
44.16000 188.239
44.20000 200.959
44.24000 199.456
44.28000 188.640
44.32000 195.690
44.36000 193.576
44.40000 210.366
44.44000 202.915
44.48000 197.919
44.52000 206.793
44.56000 222.306
44.60000 225.259
44.64000 237.478
44.68000 245.599
44.72000 255.252
44.76000 245.575
44.80000 272.602
44.84000 294.661
44.88000 314.806
44.92000 319.401
44.96000 342.993
45.00000 335.558
45.04000 316.817
45.08000 303.631
45.12000 293.800
45.16000 270.727
45.20000 267.701
45.24000 257.906
45.28000 250.145
45.32000 244.284
45.36000 229.187
45.40000 225.968
45.44000 214.889
45.48000 223.124
45.52000 225.898
45.56000 207.398
45.60000 202.967
45.64000 200.874
45.68000 190.726
45.72000 193.148
45.76000 204.410
45.80000 187.983
45.84000 187.518
45.88000 183.627
45.92000 174.740
45.96000 171.391
46.00000 169.905
46.04000 180.983
46.08000 182.087
46.12000 175.013
46.16000 192.370
46.20000 182.845
46.24000 175.210
46.28000 180.206
46.32000 167.553
46.36000 169.294
46.40000 189.892
46.44000 173.092
46.48000 163.788
46.52000 179.265
46.56000 171.710
46.60000 170.743
46.64000 167.083
46.68000 178.605
46.72000 168.523
46.76000 166.414
46.80000 167.675
46.84000 155.834
46.88000 171.409
46.92000 173.367
46.96000 174.240
47.00000 169.543
47.04000 167.756
47.08000 160.613
47.12000 156.734
47.16000 156.773
47.20000 153.603
47.24000 168.075
47.28000 176.201
47.32000 149.444
47.36000 163.088
47.40000 168.010
47.44000 173.938
47.48000 176.911
47.52000 153.719
47.56000 162.421
47.60000 159.733
47.64000 162.261
47.68000 160.291
47.72000 164.008
47.76000 158.874
47.80000 153.267
47.84000 163.809
47.88000 168.341
47.92000 163.376
47.96000 149.692
48.00000 151.448
48.04000 157.235
48.08000 171.422
48.12000 172.510
48.16000 162.375
48.20000 155.765
48.24000 155.305
48.28000 159.451
48.32000 165.962
48.36000 159.711
48.40000 157.305
48.44000 157.406
48.48000 169.059
48.52000 164.508
48.56000 159.609
48.60000 158.058
48.64000 148.168
48.68000 160.182
48.72000 169.918
48.76000 158.639
48.80000 160.308
48.84000 162.147
48.88000 146.987
48.92000 156.417
48.96000 145.506
49.00000 147.176
49.04000 148.852
49.08000 153.670
49.12000 144.679
49.16000 156.733
49.20000 141.775
49.24000 153.091
49.28000 148.405
49.32000 159.231
49.36000 152.006
49.40000 148.712
49.44000 141.616
49.48000 159.668
49.52000 152.115
49.56000 157.275
49.60000 156.417
49.64000 140.686
49.68000 149.276
49.72000 154.363
49.76000 156.732
49.80000 152.377
49.84000 146.578
49.88000 153.285
49.92000 159.313
49.96000 156.047
50.00000 170.693
50.04000 151.331
50.08000 163.638
50.12000 158.790
50.16000 170.558
50.20000 167.175
50.24000 180.399
50.28000 184.033
50.32000 191.578
50.36000 187.087
50.40000 208.240
50.44000 215.394
50.48000 230.030
50.52000 227.241
50.56000 247.086
50.60000 245.810
50.64000 249.359
50.68000 242.242
50.72000 231.153
50.76000 219.885
50.80000 208.054
50.84000 199.844
50.88000 186.491
50.92000 182.333
50.96000 169.231
51.00000 165.346
51.04000 167.556
51.08000 167.695
51.12000 157.708
51.16000 154.544
51.20000 145.156
51.24000 144.701
51.28000 150.971
51.32000 139.089
51.36000 145.653
51.40000 148.375
51.44000 145.847
51.48000 142.155
51.52000 147.655
51.56000 134.082
51.60000 151.110
51.64000 143.012
51.68000 140.480
51.72000 137.848
51.76000 135.146
51.80000 141.605
51.84000 143.607
51.88000 147.018
51.92000 137.782
51.96000 136.853
52.00000 140.636
52.04000 136.146
52.08000 138.071
52.12000 138.739
52.16000 140.200
52.20000 131.554
52.24000 152.029
52.28000 131.387
52.32000 147.081
52.36000 130.351
52.40000 146.468
52.44000 148.543
52.48000 141.045
52.52000 137.000
52.56000 138.632
52.60000 141.743
52.64000 136.286
52.68000 125.638
52.72000 144.642
52.76000 136.845
52.80000 135.622
52.84000 138.465
52.88000 152.832
52.92000 143.199
52.96000 148.234
53.00000 146.672
53.04000 152.622
53.08000 155.575
53.12000 150.341
53.16000 153.202
53.20000 161.633
53.24000 164.453
53.28000 155.797
53.32000 157.561
53.36000 160.561
53.40000 149.165
53.44000 154.693
53.48000 143.812
53.52000 152.594
53.56000 144.126
53.60000 133.862
53.64000 147.526
53.68000 149.680
53.72000 143.704
53.76000 143.112
53.80000 127.847
53.84000 131.061
53.88000 143.164
53.92000 139.847
53.96000 135.221
54.00000 143.908
54.04000 135.485
54.08000 137.007
54.12000 138.022
54.16000 138.182
54.20000 139.824
54.24000 132.547
54.28000 144.295
54.32000 130.513
54.36000 142.105
54.40000 133.782
54.44000 139.591
54.48000 129.173
54.52000 137.651
54.56000 127.524
54.60000 147.165
54.64000 136.513
54.68000 146.058
54.72000 134.651
54.76000 135.947
54.80000 132.614
54.84000 134.477
54.88000 150.677
54.92000 137.680
54.96000 145.800
55.00000 148.361
55.04000 151.540
55.08000 145.773
55.12000 151.587
55.16000 162.361
55.20000 164.380
55.24000 161.707
55.28000 169.777
55.32000 181.272
55.36000 205.434
55.40000 224.155
55.44000 255.311
55.48000 287.446
55.52000 311.591
55.56000 371.072
55.60000 415.018
55.64000 448.980
55.68000 489.816
55.72000 556.671
55.76000 577.531
55.80000 608.153
55.84000 627.104
55.88000 599.723
55.92000 600.621
55.96000 566.054
56.00000 518.594
56.04000 473.850
56.08000 412.901
56.12000 368.455
56.16000 318.946
56.20000 286.115
56.24000 258.645
56.28000 221.537
56.32000 206.172
56.36000 192.376
56.40000 170.423
56.44000 164.999
56.48000 170.678
56.52000 149.459
56.56000 138.761
56.60000 141.369
56.64000 139.324
56.68000 151.969
56.72000 141.605
56.76000 136.201
56.80000 125.276
56.84000 136.920
56.88000 143.424
56.92000 126.708
56.96000 123.945
57.00000 123.447
57.04000 133.118
57.08000 123.867
57.12000 120.527
57.16000 127.403
57.20000 123.690
57.24000 121.603
57.28000 128.930
57.32000 128.101
57.36000 129.540
57.40000 125.359
57.44000 119.873
57.48000 134.661
57.52000 128.984
57.56000 120.017
57.60000 130.319
57.64000 128.791
57.68000 130.209
57.72000 129.445
57.76000 120.708
57.80000 116.559
57.84000 120.038
57.88000 109.342
57.92000 114.214
57.96000 117.871
58.00000 127.100
58.04000 123.834
58.08000 121.000
58.12000 127.065
58.16000 128.638
58.20000 127.748
58.24000 122.479
58.28000 119.017
58.32000 128.380
58.36000 127.032
58.40000 117.874
58.44000 119.549
58.48000 119.813
58.52000 127.587
58.56000 120.091
58.60000 122.484
58.64000 117.813
58.68000 127.145
58.72000 120.875
58.76000 125.630
58.80000 116.609
58.84000 130.993
58.88000 120.167
58.92000 117.799
58.96000 107.824
59.00000 121.647
59.04000 131.660
59.08000 118.198
59.12000 117.935
59.16000 116.113
59.20000 108.961
59.24000 117.343
59.28000 121.798
59.32000 115.866
59.36000 116.051
59.40000 111.733
59.44000 119.317
59.48000 120.402
59.52000 114.624
59.56000 110.697
59.60000 119.680
59.64000 121.268
59.68000 108.518
59.72000 111.122
59.76000 111.801
59.80000 116.574
59.84000 113.949
59.88000 111.102
59.92000 123.672
59.96000 115.117
60.00000 116.147
60.04000 125.790
60.08000 108.186
60.12000 116.172
60.16000 120.589
60.20000 118.469
60.24000 115.577
60.28000 130.654
60.32000 110.522
60.36000 111.495
60.40000 117.438
60.44000 118.740
60.48000 115.409
60.52000 116.727
60.56000 112.625
60.60000 132.969
60.64000 114.017
60.68000 114.840
60.72000 113.957
60.76000 122.368
60.80000 115.790
60.84000 115.000
60.88000 112.184
60.92000 117.018
60.96000 119.553
61.00000 124.197
61.04000 111.059
61.08000 116.593
61.12000 130.195
61.16000 129.885
61.20000 127.713
61.24000 123.091
61.28000 138.081
61.32000 129.790
61.36000 120.133
61.40000 126.095
61.44000 113.754
61.48000 127.171
61.52000 169.299
61.56000 228.339
61.60000 272.522
61.64000 308.269
61.68000 318.268
61.72000 318.114
61.76000 292.501
61.80000 242.508
61.84000 168.402
61.88000 150.796
61.92000 140.933
61.96000 140.475
62.00000 139.791
62.04000 125.207
62.08000 130.332
62.12000 133.471
62.16000 136.531
62.20000 127.647
62.24000 130.035
62.28000 129.943
62.32000 125.006
62.36000 131.673
62.40000 135.378
62.44000 134.577
62.48000 123.139
62.52000 132.580
62.56000 135.215
62.60000 124.495
62.64000 124.207
62.68000 135.523
62.72000 125.716
62.76000 142.406
62.80000 139.908
62.84000 129.913
62.88000 133.715
62.92000 131.964
62.96000 131.943
63.00000 125.062
63.04000 135.412
63.08000 136.882
63.12000 136.513
63.16000 140.633
63.20000 138.487
63.24000 140.025
63.28000 125.984
63.32000 139.290
63.36000 136.744
63.40000 140.524
63.44000 136.921
63.48000 134.831
63.52000 128.399
63.56000 140.837
63.60000 136.080
63.64000 139.421
63.68000 139.981
63.72000 131.230
63.76000 136.778
63.80000 144.300
63.84000 143.225
63.88000 141.916
63.92000 147.295
63.96000 145.823
64.00000 142.805
64.04000 148.941
64.08000 155.947
64.12000 143.742
64.16000 144.118
64.20000 154.891
64.24000 150.062
64.28000 154.942
64.32000 146.703
64.36000 156.400
64.40000 155.074
64.44000 155.197
64.48000 159.571
64.52000 159.424
64.56000 159.466
64.60000 164.511
64.64000 170.826
64.68000 178.343
64.72000 185.293
64.76000 180.963
64.80000 178.696
64.84000 197.514
64.88000 194.745
64.92000 205.612
64.96000 212.505
65.00000 230.739
65.04000 224.948
65.08000 238.318
65.12000 252.452
65.16000 272.662
65.20000 295.246
65.24000 296.478
65.28000 299.633
65.32000 321.025
65.36000 348.496
65.40000 354.807
65.44000 394.376
65.48000 400.049
65.52000 414.766
65.56000 443.270
65.60000 495.918
65.64000 555.199
65.68000 733.717
65.72000 1165.205
65.76000 1697.803
65.80000 2106.527
65.84000 2293.502
65.88000 2338.185
65.92000 2140.526
65.96000 1753.563
66.00000 1162.072
66.04000 741.325
66.08000 523.734
66.12000 444.500
66.16000 425.364
66.20000 403.792
66.24000 442.169
66.28000 516.032
66.32000 606.290
66.36000 679.237
66.40000 720.125
66.44000 708.573
66.48000 680.460
66.52000 586.707
66.56000 501.484
66.60000 401.832
66.64000 377.597
66.68000 371.164
66.72000 358.589
66.76000 373.774
66.80000 378.864
66.84000 374.420
66.88000 374.248
66.92000 399.457
66.96000 378.661
67.00000 402.112
67.04000 373.913
67.08000 390.166
67.12000 386.715
67.16000 416.517
67.20000 409.994
67.24000 418.040
67.28000 424.100
67.32000 429.081
67.36000 412.729
67.40000 430.997
67.44000 426.712
67.48000 404.276
67.52000 444.923
67.56000 456.906
67.60000 448.049
67.64000 465.076
67.68000 476.648
67.72000 479.509
67.76000 489.595
67.80000 482.301
67.84000 499.975
67.88000 488.119
67.92000 505.353
67.96000 503.053
68.00000 512.963
68.04000 529.731
68.08000 521.852
68.12000 548.750
68.16000 562.703
68.20000 575.532
68.24000 576.074
68.28000 586.888
68.32000 611.832
68.36000 623.774
68.40000 627.657
68.44000 652.992
68.48000 697.738
68.52000 749.862
68.56000 801.655
68.60000 901.447
68.64000 1071.300
68.68000 1249.567
68.72000 1462.748
68.76000 1655.181
68.80000 1881.973
68.84000 2193.936
68.88000 2785.146
68.92000 4384.729
68.96000 11853.339
69.00000 25972.426
69.04000 40537.063
69.08000 48115.504
69.12000 51407.523
69.16000 54629.047
69.20000 53266.785
69.24000 43031.547
69.28000 32095.020
69.32000 26220.617
69.36000 24215.746
69.40000 19713.924
69.44000 12406.641
69.48000 5583.748
69.52000 2371.592
69.56000 1449.586
69.60000 1165.979
69.64000 958.347
69.68000 844.622
69.72000 763.433
69.76000 711.359
69.80000 664.602
69.84000 616.621
69.88000 566.121
69.92000 547.422
69.96000 523.410
70.00000 504.212