File: XRD/XRD/07-10-2025 Dep 6/XY Data/BTO_Mapping_Theta2Theta_07-10-2025_001_50_3-090_-9-511.xy
20.00000 500.764
20.04000 466.766
20.08000 480.832
20.12000 459.223
20.16000 467.150
20.20000 478.946
20.24000 472.875
20.28000 467.432
20.32000 476.450
20.36000 450.761
20.40000 474.914
20.44000 471.987
20.48000 482.223
20.52000 455.733
20.56000 472.030
20.60000 461.474
20.64000 477.151
20.68000 473.484
20.72000 456.939
20.76000 465.183
20.80000 466.829
20.84000 455.929
20.88000 465.543
20.92000 467.354
20.96000 456.042
21.00000 443.568
21.04000 467.464
21.08000 463.766
21.12000 477.188
21.16000 443.860
21.20000 442.611
21.24000 475.307
21.28000 454.956
21.32000 455.968
21.36000 461.019
21.40000 448.848
21.44000 472.432
21.48000 447.756
21.52000 469.384
21.56000 461.452
21.60000 459.089
21.64000 463.724
21.68000 447.809
21.72000 461.261
21.76000 476.819
21.80000 488.161
21.84000 483.556
21.88000 481.116
21.92000 512.787
21.96000 526.611
22.00000 525.025
22.04000 551.039
22.08000 535.046
22.12000 531.832
22.16000 522.438
22.20000 502.981
22.24000 508.163
22.28000 497.013
22.32000 475.280
22.36000 486.432
22.40000 498.402
22.44000 479.240
22.48000 454.862
22.52000 458.871
22.56000 448.928
22.60000 458.890
22.64000 434.816
22.68000 451.221
22.72000 442.978
22.76000 445.723
22.80000 435.045
22.84000 430.374
22.88000 435.393
22.92000 416.877
22.96000 430.417
23.00000 422.435
23.04000 431.845
23.08000 425.617
23.12000 425.646
23.16000 436.701
23.20000 442.744
23.24000 438.935
23.28000 417.028
23.32000 437.221
23.36000 427.622
23.40000 420.196
23.44000 425.438
23.48000 436.901
23.52000 435.690
23.56000 420.326
23.60000 446.169
23.64000 413.267
23.68000 431.007
23.72000 463.323
23.76000 448.952
23.80000 465.362
23.84000 474.295
23.88000 484.599
23.92000 498.383
23.96000 509.344
24.00000 498.137
24.04000 509.642
24.08000 480.324
24.12000 473.567
24.16000 464.666
24.20000 451.396
24.24000 442.609
24.28000 450.092
24.32000 443.388
24.36000 409.498
24.40000 419.719
24.44000 423.421
24.48000 414.655
24.52000 406.406
24.56000 425.331
24.60000 413.684
24.64000 401.577
24.68000 418.757
24.72000 400.166
24.76000 406.146
24.80000 399.919
24.84000 398.628
24.88000 415.403
24.92000 399.457
24.96000 396.128
25.00000 395.474
25.04000 409.113
25.08000 390.293
25.12000 400.684
25.16000 405.763
25.20000 388.939
25.24000 379.712
25.28000 389.769
25.32000 398.254
25.36000 396.959
25.40000 380.625
25.44000 408.077
25.48000 400.621
25.52000 379.664
25.56000 379.311
25.60000 377.826
25.64000 390.179
25.68000 397.097
25.72000 396.281
25.76000 377.948
25.80000 391.278
25.84000 392.873
25.88000 399.820
25.92000 375.193
25.96000 384.397
26.00000 401.398
26.04000 383.793
26.08000 388.275
26.12000 392.336
26.16000 386.824
26.20000 381.767
26.24000 371.275
26.28000 384.746
26.32000 365.790
26.36000 384.427
26.40000 383.452
26.44000 366.448
26.48000 388.814
26.52000 375.401
26.56000 369.130
26.60000 371.583
26.64000 362.246
26.68000 377.226
26.72000 371.666
26.76000 379.541
26.80000 368.930
26.84000 381.913
26.88000 378.917
26.92000 381.658
26.96000 386.937
27.00000 376.874
27.04000 357.965
27.08000 389.375
27.12000 368.539
27.16000 381.636
27.20000 360.005
27.24000 372.118
27.28000 367.809
27.32000 383.199
27.36000 366.865
27.40000 374.153
27.44000 373.932
27.48000 364.522
27.52000 375.388
27.56000 374.887
27.60000 366.142
27.64000 359.635
27.68000 371.324
27.72000 363.238
27.76000 345.038
27.80000 374.435
27.84000 356.159
27.88000 363.214
27.92000 356.870
27.96000 360.578
28.00000 362.368
28.04000 371.655
28.08000 351.186
28.12000 361.722
28.16000 364.567
28.20000 353.594
28.24000 374.398
28.28000 366.113
28.32000 341.153
28.36000 356.112
28.40000 349.469
28.44000 360.748
28.48000 359.528
28.52000 343.290
28.56000 345.869
28.60000 357.821
28.64000 352.486
28.68000 356.047
28.72000 338.123
28.76000 355.444
28.80000 350.481
28.84000 342.433
28.88000 352.045
28.92000 361.547
28.96000 350.963
29.00000 345.925
29.04000 361.642
29.08000 342.844
29.12000 357.091
29.16000 351.738
29.20000 348.441
29.24000 327.773
29.28000 350.217
29.32000 343.892
29.36000 341.521
29.40000 357.090
29.44000 341.607
29.48000 356.379
29.52000 352.705
29.56000 353.747
29.60000 346.589
29.64000 346.698
29.68000 351.225
29.72000 351.950
29.76000 340.537
29.80000 374.673
29.84000 374.965
29.88000 356.205
29.92000 376.236
29.96000 387.254
30.00000 377.420
30.04000 377.780
30.08000 379.123
30.12000 380.174
30.16000 370.051
30.20000 370.584
30.24000 359.714
30.28000 370.397
30.32000 372.108
30.36000 372.730
30.40000 369.727
30.44000 370.868
30.48000 370.212
30.52000 365.312
30.56000 354.794
30.60000 356.212
30.64000 355.046
30.68000 366.897
30.72000 375.055
30.76000 365.837
30.80000 360.887
30.84000 384.421
30.88000 394.380
30.92000 393.237
30.96000 400.891
31.00000 421.275
31.04000 467.869
31.08000 509.332
31.12000 556.527
31.16000 657.161
31.20000 734.190
31.24000 881.577
31.28000 990.409
31.32000 1104.049
31.36000 1143.741
31.40000 1179.075
31.44000 1127.934
31.48000 1056.136
31.52000 956.034
31.56000 831.785
31.60000 716.278
31.64000 596.117
31.68000 517.521
31.72000 460.668
31.76000 443.022
31.80000 408.786
31.84000 393.171
31.88000 387.079
31.92000 374.183
31.96000 380.539
32.00000 350.500
32.04000 343.304
32.08000 335.777
32.12000 328.878
32.16000 348.269
32.20000 337.584
32.24000 338.315
32.28000 318.810
32.32000 318.204
32.36000 316.423
32.40000 322.221
32.44000 332.027
32.48000 312.810
32.52000 302.831
32.56000 317.666
32.60000 316.759
32.64000 307.933
32.68000 328.711
32.72000 322.155
32.76000 306.330
32.80000 334.095
32.84000 384.597
32.88000 423.977
32.92000 474.822
32.96000 513.303
33.00000 509.966
33.04000 499.027
33.08000 412.314
33.12000 357.946
33.16000 321.546
33.20000 303.790
33.24000 304.101
33.28000 297.835
33.32000 312.613
33.36000 304.469
33.40000 299.916
33.44000 285.560
33.48000 281.977
33.52000 299.393
33.56000 296.308
33.60000 302.475
33.64000 294.397
33.68000 300.070
33.72000 298.957
33.76000 296.946
33.80000 299.474
33.84000 296.503
33.88000 302.349
33.92000 286.424
33.96000 302.301
34.00000 309.357
34.04000 321.856
34.08000 309.636
34.12000 314.277
34.16000 331.914
34.20000 327.897
34.24000 316.833
34.28000 323.336
34.32000 329.735
34.36000 324.976
34.40000 330.060
34.44000 333.326
34.48000 335.459
34.52000 321.926
34.56000 312.577
34.60000 314.200
34.64000 304.778
34.68000 299.992
34.72000 300.278
34.76000 299.704
34.80000 281.872
34.84000 278.708
34.88000 265.347
34.92000 282.485
34.96000 278.192
35.00000 291.054
35.04000 282.893
35.08000 271.645
35.12000 273.172
35.16000 284.514
35.20000 268.511
35.24000 265.877
35.28000 257.536
35.32000 280.602
35.36000 255.866
35.40000 257.938
35.44000 263.367
35.48000 259.528
35.52000 252.764
35.56000 268.855
35.60000 265.127
35.64000 255.478
35.68000 261.872
35.72000 252.320
35.76000 250.707
35.80000 242.387
35.84000 257.577
35.88000 261.790
35.92000 254.859
35.96000 255.259
36.00000 265.322
36.04000 250.855
36.08000 264.815
36.12000 256.792
36.16000 255.695
36.20000 262.112
36.24000 264.685
36.28000 258.156
36.32000 266.624
36.36000 255.044
36.40000 240.242
36.44000 246.431
36.48000 251.813
36.52000 247.868
36.56000 253.600
36.60000 247.124
36.64000 249.542
36.68000 241.802
36.72000 245.612
36.76000 264.603
36.80000 261.043
36.84000 260.781
36.88000 268.382
36.92000 274.479
36.96000 284.897
37.00000 283.634
37.04000 266.507
37.08000 275.128
37.12000 266.765
37.16000 264.355
37.20000 257.186
37.24000 260.330
37.28000 250.330
37.32000 248.722
37.36000 244.622
37.40000 256.782
37.44000 252.050
37.48000 236.832
37.52000 242.708
37.56000 247.857
37.60000 250.078
37.64000 241.908
37.68000 242.276
37.72000 246.625
37.76000 249.659
37.80000 238.714
37.84000 248.177
37.88000 248.650
37.92000 256.226
37.96000 248.571
38.00000 241.877
38.04000 257.673
38.08000 261.571
38.12000 257.253
38.16000 253.069
38.20000 251.442
38.24000 263.871
38.28000 265.979
38.32000 287.352
38.36000 278.451
38.40000 332.775
38.44000 366.653
38.48000 419.209
38.52000 519.972
38.56000 613.292
38.60000 732.656
38.64000 834.349
38.68000 931.970
38.72000 972.373
38.76000 960.827
38.80000 923.934
38.84000 831.490
38.88000 665.154
38.92000 564.448
38.96000 474.420
39.00000 384.932
39.04000 332.705
39.08000 282.920
39.12000 267.725
39.16000 265.867
39.20000 244.871
39.24000 240.063
39.28000 253.515
39.32000 271.543
39.36000 228.801
39.40000 235.425
39.44000 224.457
39.48000 232.099
39.52000 243.657
39.56000 236.973
39.60000 235.899
39.64000 235.429
39.68000 228.637
39.72000 229.872
39.76000 219.719
39.80000 224.175
39.84000 221.832
39.88000 235.331
39.92000 240.552
39.96000 217.595
40.00000 219.990
40.04000 215.890
40.08000 217.888
40.12000 222.040
40.16000 230.425
40.20000 219.254
40.24000 218.682
40.28000 222.721
40.32000 226.332
40.36000 210.840
40.40000 219.015
40.44000 215.738
40.48000 221.954
40.52000 208.943
40.56000 216.292
40.60000 215.298
40.64000 221.484
40.68000 220.457
40.72000 214.487
40.76000 194.046
40.80000 216.923
40.84000 206.951
40.88000 206.376
40.92000 209.196
40.96000 208.678
41.00000 210.033
41.04000 207.873
41.08000 211.023
41.12000 213.501
41.16000 199.779
41.20000 217.634
41.24000 218.774
41.28000 201.822
41.32000 200.601
41.36000 208.170
41.40000 202.864
41.44000 199.784
41.48000 206.019
41.52000 211.479
41.56000 201.344
41.60000 210.975
41.64000 205.785
41.68000 192.062
41.72000 192.113
41.76000 194.596
41.80000 207.213
41.84000 203.803
41.88000 201.600
41.92000 196.901
41.96000 209.832
42.00000 204.847
42.04000 202.262
42.08000 210.810
42.12000 219.414
42.16000 205.540
42.20000 209.780
42.24000 207.933
42.28000 215.915
42.32000 226.464
42.36000 203.779
42.40000 211.304
42.44000 208.866
42.48000 206.988
42.52000 216.314
42.56000 198.457
42.60000 212.495
42.64000 202.686
42.68000 209.032
42.72000 222.488
42.76000 219.098
42.80000 202.340
42.84000 196.084
42.88000 194.866
42.92000 201.378
42.96000 190.286
43.00000 192.071
43.04000 205.188
43.08000 200.402
43.12000 191.411
43.16000 200.462
43.20000 188.476
43.24000 187.979
43.28000 186.682
43.32000 197.546
43.36000 192.827
43.40000 191.673
43.44000 193.499
43.48000 191.401
43.52000 179.486
43.56000 203.363
43.60000 188.878
43.64000 188.028
43.68000 204.120
43.72000 200.869
43.76000 192.669
43.80000 178.141
43.84000 185.328
43.88000 182.032
43.92000 196.214
43.96000 180.326
44.00000 185.737
44.04000 188.188
44.08000 190.354
44.12000 182.939
44.16000 191.737
44.20000 187.798
44.24000 193.820
44.28000 186.372
44.32000 187.640
44.36000 196.475
44.40000 178.023
44.44000 209.990
44.48000 207.728
44.52000 210.352
44.56000 209.729
44.60000 203.562
44.64000 217.991
44.68000 224.001
44.72000 226.750
44.76000 226.449
44.80000 223.328
44.84000 220.348
44.88000 223.992
44.92000 231.312
44.96000 242.544
45.00000 237.080
45.04000 233.050
45.08000 246.919
45.12000 248.833
45.16000 244.635
45.20000 233.368
45.24000 244.100
45.28000 230.142
45.32000 221.776
45.36000 225.508
45.40000 212.519
45.44000 210.376
45.48000 211.057
45.52000 206.568
45.56000 204.632
45.60000 202.814
45.64000 212.615
45.68000 206.694
45.72000 197.934
45.76000 194.159
45.80000 188.415
45.84000 201.202
45.88000 180.680
45.92000 191.624
45.96000 191.717
46.00000 193.893
46.04000 174.486
46.08000 176.758
46.12000 187.257
46.16000 182.448
46.20000 167.588
46.24000 173.707
46.28000 178.480
46.32000 167.440
46.36000 170.552
46.40000 176.772
46.44000 183.996
46.48000 178.231
46.52000 175.138
46.56000 173.427
46.60000 170.914
46.64000 169.057
46.68000 165.757
46.72000 179.351
46.76000 175.912
46.80000 176.212
46.84000 173.951
46.88000 176.464
46.92000 163.225
46.96000 163.604
47.00000 174.012
47.04000 166.659
47.08000 164.364
47.12000 166.807
47.16000 161.595
47.20000 158.756
47.24000 160.788
47.28000 170.943
47.32000 155.152
47.36000 165.203
47.40000 160.286
47.44000 154.681
47.48000 157.868
47.52000 154.259
47.56000 177.076
47.60000 156.229
47.64000 167.348
47.68000 162.918
47.72000 157.811
47.76000 165.923
47.80000 159.311
47.84000 149.312
47.88000 156.666
47.92000 159.863
47.96000 149.636
48.00000 157.226
48.04000 162.279
48.08000 149.126
48.12000 153.938
48.16000 161.009
48.20000 161.764
48.24000 156.967
48.28000 153.545
48.32000 163.444
48.36000 151.133
48.40000 156.062
48.44000 162.553
48.48000 156.385
48.52000 159.456
48.56000 169.508
48.60000 153.073
48.64000 143.837
48.68000 161.395
48.72000 147.210
48.76000 158.700
48.80000 146.241
48.84000 160.629
48.88000 155.013
48.92000 158.479
48.96000 164.562
49.00000 155.729
49.04000 156.741
49.08000 151.394
49.12000 158.015
49.16000 154.212
49.20000 154.737
49.24000 154.161
49.28000 147.172
49.32000 157.052
49.36000 154.836
49.40000 144.145
49.44000 160.120
49.48000 150.639
49.52000 147.915
49.56000 141.692
49.60000 147.597
49.64000 150.014
49.68000 147.117
49.72000 150.108
49.76000 143.796
49.80000 144.985
49.84000 148.226
49.88000 149.834
49.92000 155.860
49.96000 156.555
50.00000 144.183
50.04000 142.657
50.08000 155.213
50.12000 148.984
50.16000 145.762
50.20000 157.030
50.24000 145.223
50.28000 148.285
50.32000 155.871
50.36000 154.353
50.40000 161.870
50.44000 169.259
50.48000 154.902
50.52000 157.712
50.56000 157.202
50.60000 157.410
50.64000 152.919
50.68000 164.551
50.72000 173.679
50.76000 163.365
50.80000 156.351
50.84000 151.640
50.88000 151.837
50.92000 158.302
50.96000 153.445
51.00000 145.885
51.04000 159.161
51.08000 142.746
51.12000 147.281
51.16000 146.195
51.20000 141.586
51.24000 147.719
51.28000 148.318
51.32000 142.865
51.36000 141.101
51.40000 134.182
51.44000 144.604
51.48000 142.237
51.52000 135.598
51.56000 135.877
51.60000 142.837
51.64000 143.779
51.68000 140.241
51.72000 139.645
51.76000 130.846
51.80000 133.220
51.84000 135.841
51.88000 146.679
51.92000 140.578
51.96000 147.150
52.00000 137.485
52.04000 140.718
52.08000 135.822
52.12000 145.764
52.16000 140.480
52.20000 138.848
52.24000 136.728
52.28000 138.941
52.32000 138.559
52.36000 132.226
52.40000 150.283
52.44000 129.651
52.48000 141.236
52.52000 138.835
52.56000 142.931
52.60000 138.835
52.64000 146.086
52.68000 138.641
52.72000 129.336
52.76000 135.292
52.80000 136.216
52.84000 143.937
52.88000 136.645
52.92000 138.218
52.96000 130.545
53.00000 139.771
53.04000 142.533
53.08000 136.715
53.12000 139.546
53.16000 144.839
53.20000 151.445
53.24000 160.097
53.28000 152.031
53.32000 154.031
53.36000 139.303
53.40000 154.635
53.44000 160.274
53.48000 151.755
53.52000 156.921
53.56000 138.433
53.60000 137.175
53.64000 150.381
53.68000 141.781
53.72000 146.226
53.76000 156.841
53.80000 137.796
53.84000 139.545
53.88000 135.660
53.92000 139.472
53.96000 140.534
54.00000 138.428
54.04000 134.411
54.08000 139.843
54.12000 130.949
54.16000 123.735
54.20000 146.389
54.24000 133.334
54.28000 140.116
54.32000 130.409
54.36000 142.466
54.40000 138.065
54.44000 129.540
54.48000 146.967
54.52000 131.592
54.56000 131.025
54.60000 133.863
54.64000 134.820
54.68000 132.581
54.72000 133.134
54.76000 138.091
54.80000 140.799
54.84000 145.308
54.88000 139.527
54.92000 133.384
54.96000 143.572
55.00000 134.896
55.04000 150.165
55.08000 145.912
55.12000 138.129
55.16000 145.063
55.20000 155.399
55.24000 148.242
55.28000 155.338
55.32000 151.577
55.36000 152.818
55.40000 157.506
55.44000 181.606
55.48000 183.095
55.52000 192.978
55.56000 221.111
55.60000 235.103
55.64000 264.458
55.68000 304.453
55.72000 350.718
55.76000 387.992
55.80000 451.551
55.84000 504.888
55.88000 531.077
55.92000 556.955
55.96000 574.632
56.00000 573.806
56.04000 551.264
56.08000 487.835
56.12000 436.118
56.16000 381.575
56.20000 355.501
56.24000 296.023
56.28000 264.507
56.32000 224.497
56.36000 195.733
56.40000 180.171
56.44000 166.862
56.48000 159.127
56.52000 166.292
56.56000 160.854
56.60000 146.230
56.64000 144.643
56.68000 135.102
56.72000 135.859
56.76000 140.232
56.80000 132.285
56.84000 133.541
56.88000 143.733
56.92000 131.571
56.96000 117.085
57.00000 122.787
57.04000 130.098
57.08000 113.037
57.12000 131.594
57.16000 125.581
57.20000 125.363
57.24000 135.533
57.28000 124.790
57.32000 112.029
57.36000 119.462
57.40000 124.725
57.44000 133.013
57.48000 130.882
57.52000 117.274
57.56000 127.402
57.60000 136.464
57.64000 128.431
57.68000 129.669
57.72000 115.635
57.76000 125.847
57.80000 124.319
57.84000 116.747
57.88000 136.295
57.92000 124.049
57.96000 124.624
58.00000 125.700
58.04000 128.430
58.08000 124.615
58.12000 117.927
58.16000 120.060
58.20000 130.464
58.24000 123.410
58.28000 118.310
58.32000 107.622
58.36000 119.720
58.40000 118.649
58.44000 120.301
58.48000 117.280
58.52000 116.364
58.56000 126.867
58.60000 127.916
58.64000 123.718
58.68000 119.716
58.72000 124.027
58.76000 114.801
58.80000 119.748
58.84000 120.938
58.88000 112.719
58.92000 113.679
58.96000 108.794
59.00000 127.369
59.04000 108.134
59.08000 124.269
59.12000 124.561
59.16000 111.469
59.20000 119.149
59.24000 114.393
59.28000 121.239
59.32000 122.192
59.36000 108.337
59.40000 109.862
59.44000 112.258
59.48000 113.940
59.52000 126.775
59.56000 118.339
59.60000 115.121
59.64000 117.591
59.68000 113.911
59.72000 114.798
59.76000 118.258
59.80000 124.211
59.84000 114.245
59.88000 126.977
59.92000 106.790
59.96000 115.078
60.00000 120.542
60.04000 112.496
60.08000 121.944
60.12000 111.799
60.16000 113.276
60.20000 124.231
60.24000 119.804
60.28000 118.503
60.32000 113.322
60.36000 120.303
60.40000 111.012
60.44000 112.165
60.48000 122.919
60.52000 116.228
60.56000 117.164
60.60000 114.689
60.64000 120.699
60.68000 117.004
60.72000 119.555
60.76000 111.778
60.80000 116.046
60.84000 116.110
60.88000 117.327
60.92000 120.298
60.96000 121.352
61.00000 119.692
61.04000 117.361
61.08000 126.396
61.12000 114.532
61.16000 129.023
61.20000 135.034
61.24000 121.766
61.28000 125.210
61.32000 123.134
61.36000 118.726
61.40000 122.755
61.44000 119.570
61.48000 135.678
61.52000 143.137
61.56000 205.547
61.60000 239.354
61.64000 280.502
61.68000 289.156
61.72000 296.980
61.76000 274.057
61.80000 208.434
61.84000 157.648
61.88000 150.290
61.92000 131.232
61.96000 131.424
62.00000 125.743
62.04000 127.973
62.08000 118.083
62.12000 128.947
62.16000 127.386
62.20000 138.000
62.24000 126.361
62.28000 123.946
62.32000 130.339
62.36000 122.153
62.40000 131.438
62.44000 132.952
62.48000 143.731
62.52000 130.873
62.56000 124.685
62.60000 132.287
62.64000 128.690
62.68000 133.607
62.72000 112.267
62.76000 124.515
62.80000 131.443
62.84000 127.916
62.88000 126.617
62.92000 120.077
62.96000 134.521
63.00000 134.669
63.04000 129.620
63.08000 124.854
63.12000 126.989
63.16000 130.279
63.20000 135.555
63.24000 125.110
63.28000 134.770
63.32000 134.598
63.36000 135.626
63.40000 125.870
63.44000 134.221
63.48000 135.526
63.52000 132.291
63.56000 123.819
63.60000 121.003
63.64000 135.933
63.68000 132.265
63.72000 134.428
63.76000 138.144
63.80000 139.789
63.84000 143.374
63.88000 139.748
63.92000 133.242
63.96000 144.705
64.00000 148.484
64.04000 145.406
64.08000 143.273
64.12000 135.154
64.16000 138.704
64.20000 140.490
64.24000 137.918
64.28000 142.746
64.32000 161.958
64.36000 151.264
64.40000 155.139
64.44000 149.438
64.48000 151.939
64.52000 151.850
64.56000 157.046
64.60000 164.312
64.64000 161.683
64.68000 157.393
64.72000 156.611
64.76000 170.149
64.80000 168.828
64.84000 174.193
64.88000 172.183
64.92000 179.118
64.96000 182.405
65.00000 184.144
65.04000 192.425
65.08000 180.095
65.12000 195.733
65.16000 199.516
65.20000 210.575
65.24000 203.167
65.28000 227.260
65.32000 241.801
65.36000 234.792
65.40000 259.641
65.44000 251.510
65.48000 279.531
65.52000 279.737
65.56000 322.765
65.60000 356.020
65.64000 421.852
65.68000 578.745
65.72000 885.758
65.76000 1333.595
65.80000 1749.609
65.84000 1901.759
65.88000 1901.055
65.92000 1832.496
65.96000 1506.582
66.00000 996.898
66.04000 653.678
66.08000 458.122
66.12000 394.626
66.16000 360.152
66.20000 362.283
66.24000 372.194
66.28000 443.828
66.32000 538.730
66.36000 597.520
66.40000 602.012
66.44000 626.832
66.48000 592.547
66.52000 523.380
66.56000 446.661
66.60000 374.251
66.64000 377.102
66.68000 362.218
66.72000 349.416
66.76000 353.420
66.80000 350.456
66.84000 350.647
66.88000 360.942
66.92000 352.207
66.96000 349.281
67.00000 351.133
67.04000 365.588
67.08000 380.930
67.12000 374.144
67.16000 382.889
67.20000 365.697
67.24000 383.660
67.28000 394.090
67.32000 382.881
67.36000 390.883
67.40000 404.275
67.44000 405.864
67.48000 406.900
67.52000 421.587
67.56000 413.432
67.60000 434.126
67.64000 439.552
67.68000 403.984
67.72000 440.892
67.76000 450.035
67.80000 447.330
67.84000 464.038
67.88000 480.999
67.92000 483.115
67.96000 474.946
68.00000 488.299
68.04000 497.401
68.08000 499.924
68.12000 508.988
68.16000 513.664
68.20000 527.170
68.24000 548.500
68.28000 585.016
68.32000 571.196
68.36000 588.745
68.40000 611.058
68.44000 623.272
68.48000 658.715
68.52000 690.965
68.56000 738.655
68.60000 818.171
68.64000 927.953
68.68000 1087.108
68.72000 1259.302
68.76000 1427.017
68.80000 1563.278
68.84000 1758.024
68.88000 2189.853
68.92000 3259.146
68.96000 8957.393
69.00000 20584.533
69.04000 33018.043
69.08000 39670.176
69.12000 42487.621
69.16000 45081.840
69.20000 45009.465
69.24000 35949.230
69.28000 26481.533
69.32000 21701.725
69.36000 20334.184
69.40000 17110.393
69.44000 10619.105
69.48000 4788.957
69.52000 2104.862
69.56000 1287.878
69.60000 1052.568
69.64000 877.680
69.68000 795.244
69.72000 713.569
69.76000 648.652
69.80000 611.385
69.84000 585.454
69.88000 555.303
69.92000 521.784
69.96000 517.722
70.00000 488.185