File: XRD/XRD/07-10-2025 Dep 6/XY Data/BTO_Mapping_Theta2Theta_07-10-2025_001_21_-4-181_39-781.xy
20.00000 476.533
20.04000 484.972
20.08000 475.195
20.12000 477.535
20.16000 464.117
20.20000 495.394
20.24000 469.845
20.28000 487.066
20.32000 436.298
20.36000 469.886
20.40000 456.539
20.44000 461.260
20.48000 453.216
20.52000 480.974
20.56000 456.654
20.60000 463.275
20.64000 458.019
20.68000 474.947
20.72000 463.294
20.76000 470.458
20.80000 468.373
20.84000 453.788
20.88000 471.342
20.92000 468.379
20.96000 450.934
21.00000 469.478
21.04000 447.064
21.08000 462.059
21.12000 469.357
21.16000 481.021
21.20000 460.918
21.24000 483.756
21.28000 476.937
21.32000 464.135
21.36000 439.108
21.40000 458.051
21.44000 474.293
21.48000 461.420
21.52000 461.858
21.56000 450.436
21.60000 465.589
21.64000 444.779
21.68000 462.344
21.72000 458.411
21.76000 462.326
21.80000 475.331
21.84000 480.148
21.88000 475.466
21.92000 476.880
21.96000 474.995
22.00000 492.500
22.04000 491.873
22.08000 505.385
22.12000 502.181
22.16000 511.853
22.20000 510.630
22.24000 490.413
22.28000 454.988
22.32000 483.069
22.36000 483.398
22.40000 463.798
22.44000 458.894
22.48000 445.680
22.52000 459.871
22.56000 447.905
22.60000 457.844
22.64000 443.637
22.68000 442.940
22.72000 415.835
22.76000 441.482
22.80000 441.632
22.84000 434.407
22.88000 437.975
22.92000 448.407
22.96000 443.190
23.00000 440.289
23.04000 439.536
23.08000 437.032
23.12000 470.394
23.16000 428.540
23.20000 432.300
23.24000 429.944
23.28000 419.718
23.32000 434.293
23.36000 439.278
23.40000 444.019
23.44000 428.152
23.48000 436.327
23.52000 447.595
23.56000 424.074
23.60000 441.448
23.64000 447.778
23.68000 448.287
23.72000 455.393
23.76000 454.465
23.80000 475.172
23.84000 497.641
23.88000 486.563
23.92000 504.386
23.96000 478.080
24.00000 514.954
24.04000 495.338
24.08000 502.410
24.12000 485.895
24.16000 469.263
24.20000 460.452
24.24000 453.701
24.28000 437.105
24.32000 439.142
24.36000 431.444
24.40000 431.303
24.44000 428.042
24.48000 404.259
24.52000 411.657
24.56000 425.888
24.60000 414.615
24.64000 407.544
24.68000 406.520
24.72000 401.527
24.76000 410.386
24.80000 386.671
24.84000 399.861
24.88000 407.023
24.92000 407.269
24.96000 403.309
25.00000 434.518
25.04000 396.946
25.08000 392.462
25.12000 394.844
25.16000 389.693
25.20000 401.366
25.24000 395.018
25.28000 404.065
25.32000 394.631
25.36000 390.728
25.40000 399.969
25.44000 389.651
25.48000 403.308
25.52000 406.639
25.56000 393.124
25.60000 395.620
25.64000 394.848
25.68000 396.894
25.72000 385.136
25.76000 392.747
25.80000 392.157
25.84000 397.187
25.88000 399.457
25.92000 404.693
25.96000 390.734
26.00000 377.700
26.04000 387.843
26.08000 379.250
26.12000 372.883
26.16000 402.552
26.20000 360.691
26.24000 390.716
26.28000 384.746
26.32000 366.592
26.36000 407.500
26.40000 388.625
26.44000 390.674
26.48000 376.549
26.52000 365.331
26.56000 373.894
26.60000 388.730
26.64000 387.739
26.68000 371.989
26.72000 381.654
26.76000 391.528
26.80000 355.131
26.84000 372.038
26.88000 381.009
26.92000 383.035
26.96000 367.794
27.00000 360.837
27.04000 357.117
27.08000 394.463
27.12000 381.895
27.16000 375.162
27.20000 372.423
27.24000 380.052
27.28000 339.460
27.32000 376.228
27.36000 369.568
27.40000 373.251
27.44000 379.400
27.48000 351.611
27.52000 366.506
27.56000 377.045
27.60000 377.335
27.64000 368.621
27.68000 375.556
27.72000 355.031
27.76000 351.824
27.80000 372.338
27.84000 363.789
27.88000 373.397
27.92000 361.408
27.96000 361.215
28.00000 354.094
28.04000 354.780
28.08000 366.112
28.12000 371.665
28.16000 362.945
28.20000 381.638
28.24000 355.112
28.28000 376.394
28.32000 351.107
28.36000 352.797
28.40000 357.483
28.44000 349.217
28.48000 350.133
28.52000 354.765
28.56000 348.550
28.60000 344.872
28.64000 367.543
28.68000 362.945
28.72000 356.438
28.76000 345.768
28.80000 364.076
28.84000 381.068
28.88000 371.148
28.92000 342.682
28.96000 347.671
29.00000 351.610
29.04000 350.027
29.08000 341.882
29.12000 351.017
29.16000 363.271
29.20000 349.793
29.24000 347.678
29.28000 331.514
29.32000 343.555
29.36000 359.273
29.40000 349.756
29.44000 349.662
29.48000 332.013
29.52000 333.475
29.56000 349.648
29.60000 350.959
29.64000 353.656
29.68000 360.267
29.72000 343.970
29.76000 370.341
29.80000 356.621
29.84000 357.280
29.88000 363.868
29.92000 377.387
29.96000 381.843
30.00000 400.357
30.04000 368.974
30.08000 370.172
30.12000 374.142
30.16000 383.045
30.20000 372.416
30.24000 372.936
30.28000 380.237
30.32000 366.030
30.36000 368.197
30.40000 360.930
30.44000 348.145
30.48000 357.205
30.52000 348.283
30.56000 354.610
30.60000 356.972
30.64000 370.830
30.68000 369.029
30.72000 369.075
30.76000 382.189
30.80000 377.219
30.84000 397.570
30.88000 403.668
30.92000 395.532
30.96000 428.687
31.00000 445.432
31.04000 474.053
31.08000 494.657
31.12000 578.475
31.16000 644.913
31.20000 741.178
31.24000 841.106
31.28000 967.962
31.32000 1058.708
31.36000 1146.390
31.40000 1166.902
31.44000 1108.177
31.48000 1023.554
31.52000 934.966
31.56000 823.319
31.60000 680.954
31.64000 613.167
31.68000 544.015
31.72000 471.157
31.76000 448.407
31.80000 417.111
31.84000 396.586
31.88000 388.421
31.92000 394.430
31.96000 382.266
32.00000 367.984
32.04000 347.075
32.08000 350.401
32.12000 340.544
32.16000 348.887
32.20000 346.524
32.24000 351.470
32.28000 345.992
32.32000 341.108
32.36000 350.010
32.40000 326.624
32.44000 311.991
32.48000 318.275
32.52000 323.011
32.56000 323.585
32.60000 325.808
32.64000 328.935
32.68000 321.879
32.72000 321.596
32.76000 319.274
32.80000 337.147
32.84000 417.218
32.88000 452.155
32.92000 515.169
32.96000 524.613
33.00000 540.702
33.04000 526.646
33.08000 464.053
33.12000 384.397
33.16000 344.095
33.20000 301.217
33.24000 291.016
33.28000 281.261
33.32000 292.320
33.36000 289.253
33.40000 276.489
33.44000 298.689
33.48000 276.105
33.52000 291.310
33.56000 287.143
33.60000 303.282
33.64000 303.701
33.68000 302.225
33.72000 301.502
33.76000 283.603
33.80000 282.589
33.84000 287.958
33.88000 296.392
33.92000 296.335
33.96000 300.500
34.00000 318.533
34.04000 309.258
34.08000 303.137
34.12000 305.542
34.16000 316.468
34.20000 308.509
34.24000 323.199
34.28000 305.452
34.32000 331.249
34.36000 320.401
34.40000 313.900
34.44000 315.312
34.48000 306.708
34.52000 312.619
34.56000 304.495
34.60000 293.412
34.64000 296.024
34.68000 294.312
34.72000 284.516
34.76000 300.457
34.80000 289.220
34.84000 278.634
34.88000 287.789
34.92000 276.586
34.96000 290.062
35.00000 269.933
35.04000 264.375
35.08000 264.305
35.12000 270.784
35.16000 261.417
35.20000 271.629
35.24000 255.861
35.28000 251.637
35.32000 260.013
35.36000 271.635
35.40000 258.361
35.44000 266.660
35.48000 244.024
35.52000 265.038
35.56000 261.999
35.60000 261.959
35.64000 259.795
35.68000 273.007
35.72000 263.480
35.76000 264.824
35.80000 266.362
35.84000 253.638
35.88000 248.560
35.92000 243.442
35.96000 248.574
36.00000 270.446
36.04000 256.361
36.08000 257.924
36.12000 254.074
36.16000 252.685
36.20000 277.775
36.24000 262.646
36.28000 257.083
36.32000 253.284
36.36000 254.683
36.40000 269.883
36.44000 268.796
36.48000 248.534
36.52000 265.704
36.56000 244.876
36.60000 251.974
36.64000 251.352
36.68000 249.318
36.72000 260.396
36.76000 255.728
36.80000 245.667
36.84000 254.713
36.88000 265.325
36.92000 255.604
36.96000 267.555
37.00000 283.917
37.04000 263.684
37.08000 254.373
37.12000 268.848
37.16000 264.608
37.20000 268.333
37.24000 279.919
37.28000 255.993
37.32000 249.485
37.36000 259.680
37.40000 250.886
37.44000 241.712
37.48000 249.855
37.52000 246.893
37.56000 248.469
37.60000 243.838
37.64000 252.022
37.68000 250.241
37.72000 252.148
37.76000 251.371
37.80000 257.703
37.84000 251.255
37.88000 248.389
37.92000 247.145
37.96000 251.583
38.00000 261.028
38.04000 242.112
38.08000 263.016
38.12000 245.506
38.16000 259.927
38.20000 250.344
38.24000 273.099
38.28000 261.929
38.32000 260.628
38.36000 275.511
38.40000 309.634
38.44000 333.342
38.48000 366.276
38.52000 429.664
38.56000 493.135
38.60000 549.760
38.64000 647.242
38.68000 715.615
38.72000 707.056
38.76000 721.673
38.80000 649.577
38.84000 599.446
38.88000 508.700
38.92000 448.578
38.96000 372.025
39.00000 318.218
39.04000 303.973
39.08000 271.939
39.12000 254.166
39.16000 242.883
39.20000 254.623
39.24000 241.843
39.28000 243.028
39.32000 223.724
39.36000 225.680
39.40000 228.487
39.44000 230.278
39.48000 242.613
39.52000 224.321
39.56000 221.568
39.60000 218.234
39.64000 254.342
39.68000 231.212
39.72000 238.398
39.76000 231.441
39.80000 239.073
39.84000 227.409
39.88000 233.939
39.92000 231.921
39.96000 234.378
40.00000 220.423
40.04000 229.208
40.08000 221.477
40.12000 227.374
40.16000 224.147
40.20000 237.620
40.24000 230.350
40.28000 231.882
40.32000 216.127
40.36000 219.439
40.40000 216.827
40.44000 233.113
40.48000 227.592
40.52000 218.217
40.56000 225.079
40.60000 206.301
40.64000 206.384
40.68000 210.703
40.72000 208.638
40.76000 200.305
40.80000 206.292
40.84000 223.568
40.88000 210.253
40.92000 200.403
40.96000 208.898
41.00000 213.570
41.04000 209.326
41.08000 212.109
41.12000 208.457
41.16000 206.428
41.20000 218.110
41.24000 203.802
41.28000 211.273
41.32000 207.829
41.36000 193.018
41.40000 201.240
41.44000 210.235
41.48000 195.341
41.52000 199.360
41.56000 212.666
41.60000 201.415
41.64000 218.666
41.68000 212.483
41.72000 204.080
41.76000 196.491
41.80000 207.209
41.84000 209.920
41.88000 203.125
41.92000 210.094
41.96000 212.712
42.00000 214.732
42.04000 218.450
42.08000 211.886
42.12000 208.499
42.16000 212.904
42.20000 215.809
42.24000 214.841
42.28000 211.363
42.32000 214.438
42.36000 222.526
42.40000 208.508
42.44000 206.418
42.48000 197.181
42.52000 209.267
42.56000 207.776
42.60000 193.394
42.64000 203.335
42.68000 207.940
42.72000 199.361
42.76000 206.091
42.80000 195.411
42.84000 219.331
42.88000 200.939
42.92000 199.068
42.96000 201.531
43.00000 195.751
43.04000 198.070
43.08000 192.790
43.12000 193.569
43.16000 190.239
43.20000 203.016
43.24000 192.925
43.28000 184.554
43.32000 187.249
43.36000 190.361
43.40000 186.025
43.44000 188.052
43.48000 195.512
43.52000 192.813
43.56000 195.765
43.60000 195.366
43.64000 193.820
43.68000 190.570
43.72000 189.792
43.76000 197.059
43.80000 182.653
43.84000 186.703
43.88000 199.106
43.92000 188.449
43.96000 183.113
44.00000 189.259
44.04000 183.540
44.08000 191.338
44.12000 183.631
44.16000 179.749
44.20000 178.322
44.24000 191.356
44.28000 190.397
44.32000 185.598
44.36000 200.821
44.40000 191.273
44.44000 200.870
44.48000 201.561
44.52000 206.525
44.56000 205.076
44.60000 193.501
44.64000 208.084
44.68000 197.564
44.72000 213.592
44.76000 209.209
44.80000 208.135
44.84000 214.950
44.88000 219.259
44.92000 207.761
44.96000 213.360
45.00000 213.106
45.04000 213.400
45.08000 202.712
45.12000 224.439
45.16000 230.315
45.20000 215.065
45.24000 220.855
45.28000 226.024
45.32000 213.610
45.36000 208.143
45.40000 207.955
45.44000 213.143
45.48000 203.793
45.52000 194.006
45.56000 203.398
45.60000 204.426
45.64000 185.171
45.68000 197.307
45.72000 186.898
45.76000 178.810
45.80000 176.485
45.84000 191.538
45.88000 185.148
45.92000 170.150
45.96000 180.514
46.00000 173.775
46.04000 183.546
46.08000 175.272
46.12000 177.579
46.16000 176.462
46.20000 178.526
46.24000 178.365
46.28000 168.732
46.32000 180.136
46.36000 164.520
46.40000 175.434
46.44000 171.445
46.48000 185.230
46.52000 173.412
46.56000 171.129
46.60000 177.107
46.64000 187.794
46.68000 181.298
46.72000 171.669
46.76000 168.294
46.80000 167.539
46.84000 180.940
46.88000 177.216
46.92000 173.687
46.96000 171.075
47.00000 174.064
47.04000 167.917
47.08000 165.845
47.12000 174.734
47.16000 167.191
47.20000 171.888
47.24000 176.389
47.28000 163.324
47.32000 157.256
47.36000 154.390
47.40000 170.048
47.44000 165.994
47.48000 161.086
47.52000 152.961
47.56000 160.770
47.60000 151.357
47.64000 166.496
47.68000 166.494
47.72000 161.346
47.76000 157.079
47.80000 151.963
47.84000 172.066
47.88000 150.618
47.92000 164.861
47.96000 153.228
48.00000 148.489
48.04000 164.682
48.08000 152.308
48.12000 163.627
48.16000 157.740
48.20000 157.933
48.24000 164.848
48.28000 153.821
48.32000 159.532
48.36000 162.658
48.40000 161.517
48.44000 155.100
48.48000 152.138
48.52000 154.475
48.56000 160.878
48.60000 150.113
48.64000 153.709
48.68000 162.591
48.72000 156.264
48.76000 153.425
48.80000 153.657
48.84000 151.510
48.88000 148.776
48.92000 159.198
48.96000 159.048
49.00000 158.468
49.04000 158.236
49.08000 152.667
49.12000 155.027
49.16000 161.031
49.20000 145.287
49.24000 154.246
49.28000 146.461
49.32000 166.309
49.36000 160.064
49.40000 161.201
49.44000 154.233
49.48000 150.117
49.52000 154.408
49.56000 153.223
49.60000 154.091
49.64000 149.612
49.68000 134.848
49.72000 149.548
49.76000 160.387
49.80000 138.858
49.84000 163.943
49.88000 160.844
49.92000 146.401
49.96000 152.515
50.00000 143.772
50.04000 132.075
50.08000 153.099
50.12000 156.341
50.16000 155.029
50.20000 152.664
50.24000 154.595
50.28000 158.818
50.32000 163.626
50.36000 153.794
50.40000 147.732
50.44000 154.490
50.48000 165.240
50.52000 171.996
50.56000 161.537
50.60000 166.036
50.64000 161.732
50.68000 160.310
50.72000 160.753
50.76000 167.407
50.80000 164.853
50.84000 161.314
50.88000 153.056
50.92000 151.311
50.96000 144.276
51.00000 151.952
51.04000 148.683
51.08000 134.327
51.12000 143.129
51.16000 154.780
51.20000 154.852
51.24000 152.565
51.28000 138.052
51.32000 150.883
51.36000 148.070
51.40000 146.241
51.44000 137.416
51.48000 147.693
51.52000 143.414
51.56000 146.054
51.60000 136.752
51.64000 134.337
51.68000 133.852
51.72000 137.970
51.76000 146.213
51.80000 134.959
51.84000 135.778
51.88000 134.511
51.92000 144.929
51.96000 128.763
52.00000 129.493
52.04000 134.883
52.08000 137.888
52.12000 151.457
52.16000 136.157
52.20000 135.772
52.24000 132.777
52.28000 139.022
52.32000 131.222
52.36000 125.512
52.40000 136.162
52.44000 137.729
52.48000 141.762
52.52000 145.426
52.56000 144.665
52.60000 136.579
52.64000 145.237
52.68000 137.314
52.72000 124.288
52.76000 135.769
52.80000 136.176
52.84000 138.889
52.88000 137.913
52.92000 150.731
52.96000 140.125
53.00000 139.568
53.04000 144.977
53.08000 145.943
53.12000 151.500
53.16000 141.256
53.20000 140.060
53.24000 142.038
53.28000 142.038
53.32000 143.459
53.36000 149.863
53.40000 143.146
53.44000 159.411
53.48000 138.317
53.52000 144.213
53.56000 136.239
53.60000 153.117
53.64000 142.924
53.68000 134.169
53.72000 147.383
53.76000 144.532
53.80000 138.250
53.84000 135.042
53.88000 146.331
53.92000 133.432
53.96000 137.557
54.00000 136.313
54.04000 140.264
54.08000 144.933
54.12000 145.203
54.16000 129.124
54.20000 137.486
54.24000 141.618
54.28000 139.732
54.32000 135.313
54.36000 134.220
54.40000 122.622
54.44000 128.238
54.48000 136.684
54.52000 142.552
54.56000 143.153
54.60000 141.920
54.64000 137.549
54.68000 134.913
54.72000 143.815
54.76000 136.829
54.80000 138.683
54.84000 131.654
54.88000 132.378
54.92000 136.000
54.96000 136.810
55.00000 138.349
55.04000 141.366
55.08000 140.064
55.12000 140.521
55.16000 140.014
55.20000 142.282
55.24000 147.507
55.28000 153.297
55.32000 157.551
55.36000 158.852
55.40000 156.464
55.44000 173.462
55.48000 171.900
55.52000 163.329
55.56000 180.893
55.60000 190.868
55.64000 221.079
55.68000 238.869
55.72000 252.933
55.76000 274.330
55.80000 320.842
55.84000 327.535
55.88000 349.701
55.92000 361.479
55.96000 380.116
56.00000 375.391
56.04000 356.132
56.08000 338.216
56.12000 314.096
56.16000 282.391
56.20000 261.094
56.24000 237.356
56.28000 216.015
56.32000 198.944
56.36000 195.729
56.40000 179.403
56.44000 165.541
56.48000 155.831
56.52000 150.771
56.56000 156.297
56.60000 145.057
56.64000 134.640
56.68000 135.628
56.72000 133.042
56.76000 135.075
56.80000 131.432
56.84000 135.466
56.88000 140.775
56.92000 131.843
56.96000 132.407
57.00000 132.384
57.04000 131.570
57.08000 130.403
57.12000 131.394
57.16000 117.010
57.20000 129.963
57.24000 130.458
57.28000 131.355
57.32000 121.021
57.36000 121.858
57.40000 122.276
57.44000 128.657
57.48000 130.120
57.52000 139.106
57.56000 127.332
57.60000 125.799
57.64000 123.877
57.68000 134.556
57.72000 132.191
57.76000 122.348
57.80000 126.655
57.84000 130.824
57.88000 118.559
57.92000 120.412
57.96000 121.560
58.00000 121.787
58.04000 126.614
58.08000 120.774
58.12000 133.399
58.16000 121.708
58.20000 117.416
58.24000 122.624
58.28000 125.396
58.32000 125.320
58.36000 110.052
58.40000 113.920
58.44000 123.247
58.48000 122.525
58.52000 114.831
58.56000 112.283
58.60000 116.597
58.64000 121.248
58.68000 119.119
58.72000 116.956
58.76000 115.239
58.80000 117.177
58.84000 122.846
58.88000 120.691
58.92000 122.415
58.96000 118.980
59.00000 119.860
59.04000 122.533
59.08000 122.745
59.12000 115.370
59.16000 112.309
59.20000 116.030
59.24000 110.251
59.28000 116.999
59.32000 114.514
59.36000 117.094
59.40000 120.613
59.44000 118.785
59.48000 116.253
59.52000 122.551
59.56000 111.490
59.60000 121.692
59.64000 113.489
59.68000 127.944
59.72000 123.367
59.76000 112.644
59.80000 118.258
59.84000 125.773
59.88000 124.132
59.92000 117.686
59.96000 120.869
60.00000 126.407
60.04000 116.661
60.08000 116.646
60.12000 122.499
60.16000 117.070
60.20000 120.797
60.24000 118.653
60.28000 117.498
60.32000 110.213
60.36000 110.004
60.40000 105.140
60.44000 119.653
60.48000 113.960
60.52000 121.084
60.56000 111.496
60.60000 124.331
60.64000 119.571
60.68000 116.290
60.72000 113.899
60.76000 124.791
60.80000 124.215
60.84000 121.225
60.88000 115.049
60.92000 108.643
60.96000 116.791
61.00000 124.251
61.04000 120.201
61.08000 126.468
61.12000 129.867
61.16000 123.252
61.20000 128.279
61.24000 126.832
61.28000 128.399
61.32000 142.397
61.36000 117.699
61.40000 118.380
61.44000 128.078
61.48000 140.177
61.52000 151.730
61.56000 200.155
61.60000 247.574
61.64000 273.358
61.68000 290.046
61.72000 311.475
61.76000 276.943
61.80000 224.799
61.84000 178.006
61.88000 143.086
61.92000 132.358
61.96000 126.933
62.00000 134.229
62.04000 134.260
62.08000 132.136
62.12000 131.134
62.16000 128.189
62.20000 121.116
62.24000 117.823
62.28000 124.036
62.32000 133.087
62.36000 126.635
62.40000 130.126
62.44000 129.812
62.48000 126.201
62.52000 124.675
62.56000 130.458
62.60000 132.484
62.64000 138.624
62.68000 128.823
62.72000 118.230
62.76000 137.674
62.80000 129.485
62.84000 143.969
62.88000 130.221
62.92000 127.694
62.96000 133.167
63.00000 130.931
63.04000 129.926
63.08000 131.797
63.12000 125.294
63.16000 128.664
63.20000 132.251
63.24000 141.735
63.28000 131.118
63.32000 129.408
63.36000 136.135
63.40000 139.938
63.44000 141.989
63.48000 134.750
63.52000 136.576
63.56000 147.283
63.60000 148.510
63.64000 139.522
63.68000 134.355
63.72000 130.939
63.76000 137.908
63.80000 142.724
63.84000 141.827
63.88000 146.493
63.92000 138.100
63.96000 153.942
64.00000 149.235
64.04000 150.271
64.08000 149.883
64.12000 147.104
64.16000 144.599
64.20000 152.936
64.24000 164.862
64.28000 144.087
64.32000 152.165
64.36000 150.084
64.40000 157.892
64.44000 153.038
64.48000 156.040
64.52000 162.003
64.56000 167.536
64.60000 159.573
64.64000 168.916
64.68000 165.147
64.72000 167.242
64.76000 180.064
64.80000 179.248
64.84000 169.640
64.88000 173.550
64.92000 190.206
64.96000 186.463
65.00000 190.550
65.04000 197.091
65.08000 181.399
65.12000 197.455
65.16000 208.829
65.20000 200.059
65.24000 213.642
65.28000 213.482
65.32000 238.018
65.36000 242.034
65.40000 244.672
65.44000 270.641
65.48000 284.429
65.52000 306.910
65.56000 335.242
65.60000 358.546
65.64000 426.104
65.68000 564.105
65.72000 942.417
65.76000 1445.670
65.80000 1770.481
65.84000 1947.328
65.88000 1973.511
65.92000 1880.922
65.96000 1497.046
66.00000 1012.506
66.04000 635.902
66.08000 479.375
66.12000 397.869
66.16000 381.901
66.20000 377.700
66.24000 412.576
66.28000 470.760
66.32000 575.426
66.36000 595.978
66.40000 627.504
66.44000 642.242
66.48000 607.972
66.52000 531.925
66.56000 445.003
66.60000 386.151
66.64000 360.314
66.68000 363.354
66.72000 356.498
66.76000 358.971
66.80000 365.466
66.84000 349.898
66.88000 358.121
66.92000 350.432
66.96000 383.237
67.00000 387.776
67.04000 390.644
67.08000 379.638
67.12000 387.827
67.16000 384.476
67.20000 389.990
67.24000 388.685
67.28000 402.274
67.32000 409.842
67.36000 438.744
67.40000 412.423
67.44000 432.510
67.48000 415.586
67.52000 429.568
67.56000 419.324
67.60000 447.610
67.64000 442.865
67.68000 460.396
67.72000 462.810
67.76000 461.725
67.80000 481.462
67.84000 476.973
67.88000 472.536
67.92000 502.438
67.96000 518.448
68.00000 501.969
68.04000 512.451
68.08000 535.961
68.12000 527.546
68.16000 555.547
68.20000 562.147
68.24000 578.196
68.28000 575.118
68.32000 608.941
68.36000 619.616
68.40000 637.819
68.44000 649.868
68.48000 670.750
68.52000 735.194
68.56000 766.545
68.60000 870.982
68.64000 985.017
68.68000 1159.653
68.72000 1344.588
68.76000 1513.723
68.80000 1671.421
68.84000 1878.400
68.88000 2349.824
68.92000 3555.459
68.96000 9940.112
69.00000 22418.107
69.04000 35020.012
69.08000 41474.629
69.12000 44019.773
69.16000 46993.043
69.20000 46366.785
69.24000 36527.156
69.28000 27023.270
69.32000 22370.145
69.36000 20897.801
69.40000 17283.211
69.44000 10528.909
69.48000 4692.778
69.52000 2068.569
69.56000 1328.165
69.60000 1067.763
69.64000 881.444
69.68000 795.529
69.72000 723.388
69.76000 681.239
69.80000 607.704
69.84000 579.224
69.88000 575.709
69.92000 539.941
69.96000 516.374
70.00000 519.969