File: XRD/XRD/07-10-2025 Dep 6/XY Data/BTO_Mapping_Theta2Theta_07-10-2025_001_28_-24-271_17-634.xy
20.00000 459.706
20.04000 467.484
20.08000 460.981
20.12000 465.859
20.16000 473.741
20.20000 472.021
20.24000 471.701
20.28000 482.049
20.32000 476.930
20.36000 475.700
20.40000 475.851
20.44000 456.369
20.48000 452.605
20.52000 469.852
20.56000 464.305
20.60000 469.196
20.64000 458.776
20.68000 455.837
20.72000 472.905
20.76000 447.501
20.80000 467.094
20.84000 475.661
20.88000 464.359
20.92000 451.157
20.96000 451.802
21.00000 455.070
21.04000 451.504
21.08000 458.726
21.12000 467.614
21.16000 454.840
21.20000 453.082
21.24000 456.791
21.28000 454.719
21.32000 452.246
21.36000 461.293
21.40000 462.027
21.44000 446.535
21.48000 461.314
21.52000 448.681
21.56000 458.800
21.60000 460.456
21.64000 472.106
21.68000 471.242
21.72000 475.990
21.76000 474.732
21.80000 490.760
21.84000 510.953
21.88000 514.848
21.92000 550.670
21.96000 531.716
22.00000 546.869
22.04000 566.024
22.08000 568.142
22.12000 540.767
22.16000 527.211
22.20000 543.725
22.24000 532.199
22.28000 516.161
22.32000 513.794
22.36000 476.281
22.40000 483.884
22.44000 478.553
22.48000 467.323
22.52000 473.109
22.56000 455.307
22.60000 435.593
22.64000 438.312
22.68000 434.841
22.72000 441.635
22.76000 434.912
22.80000 428.294
22.84000 425.616
22.88000 431.063
22.92000 431.329
22.96000 439.112
23.00000 410.091
23.04000 433.181
23.08000 431.318
23.12000 434.346
23.16000 422.993
23.20000 446.614
23.24000 451.452
23.28000 419.878
23.32000 433.886
23.36000 427.547
23.40000 430.976
23.44000 431.247
23.48000 417.384
23.52000 418.813
23.56000 418.585
23.60000 434.468
23.64000 449.031
23.68000 426.949
23.72000 430.372
23.76000 422.891
23.80000 421.370
23.84000 454.932
23.88000 448.402
23.92000 438.418
23.96000 437.528
24.00000 442.129
24.04000 424.135
24.08000 445.860
24.12000 448.786
24.16000 411.966
24.20000 424.278
24.24000 409.160
24.28000 427.230
24.32000 424.509
24.36000 421.064
24.40000 426.345
24.44000 434.717
24.48000 394.161
24.52000 402.608
24.56000 400.384
24.60000 406.423
24.64000 409.246
24.68000 415.080
24.72000 399.885
24.76000 392.212
24.80000 402.310
24.84000 387.297
24.88000 382.262
24.92000 396.146
24.96000 415.210
25.00000 393.284
25.04000 384.228
25.08000 406.212
25.12000 381.896
25.16000 389.425
25.20000 386.982
25.24000 390.487
25.28000 413.094
25.32000 396.741
25.36000 409.762
25.40000 398.110
25.44000 384.668
25.48000 391.973
25.52000 401.517
25.56000 397.934
25.60000 394.674
25.64000 389.455
25.68000 399.649
25.72000 389.806
25.76000 395.930
25.80000 394.328
25.84000 378.915
25.88000 388.975
25.92000 373.174
25.96000 386.269
26.00000 376.028
26.04000 381.957
26.08000 379.111
26.12000 383.945
26.16000 363.640
26.20000 388.133
26.24000 381.856
26.28000 382.814
26.32000 375.571
26.36000 382.170
26.40000 390.168
26.44000 372.927
26.48000 372.000
26.52000 373.169
26.56000 361.028
26.60000 366.985
26.64000 358.610
26.68000 372.108
26.72000 365.851
26.76000 367.021
26.80000 364.720
26.84000 369.173
26.88000 375.373
26.92000 379.581
26.96000 369.191
27.00000 395.913
27.04000 367.844
27.08000 370.197
27.12000 364.029
27.16000 372.635
27.20000 361.582
27.24000 357.925
27.28000 369.997
27.32000 361.234
27.36000 356.005
27.40000 377.907
27.44000 377.831
27.48000 359.436
27.52000 361.949
27.56000 371.389
27.60000 363.892
27.64000 373.926
27.68000 366.470
27.72000 357.535
27.76000 360.813
27.80000 365.141
27.84000 359.326
27.88000 358.485
27.92000 366.034
27.96000 361.338
28.00000 360.644
28.04000 357.101
28.08000 359.760
28.12000 358.754
28.16000 365.795
28.20000 365.265
28.24000 363.110
28.28000 368.182
28.32000 359.226
28.36000 356.450
28.40000 361.917
28.44000 365.197
28.48000 357.825
28.52000 365.653
28.56000 357.560
28.60000 350.162
28.64000 356.199
28.68000 347.374
28.72000 356.859
28.76000 352.878
28.80000 361.298
28.84000 362.518
28.88000 349.340
28.92000 372.176
28.96000 346.334
29.00000 361.839
29.04000 349.959
29.08000 348.357
29.12000 337.962
29.16000 359.676
29.20000 342.974
29.24000 358.601
29.28000 346.326
29.32000 354.502
29.36000 356.852
29.40000 352.141
29.44000 355.540
29.48000 347.445
29.52000 340.961
29.56000 334.417
29.60000 344.441
29.64000 354.480
29.68000 360.246
29.72000 353.860
29.76000 368.955
29.80000 362.221
29.84000 390.608
29.88000 393.020
29.92000 397.613
29.96000 392.907
30.00000 402.730
30.04000 389.530
30.08000 391.124
30.12000 384.474
30.16000 390.714
30.20000 366.093
30.24000 381.639
30.28000 359.848
30.32000 365.108
30.36000 368.323
30.40000 364.415
30.44000 362.367
30.48000 349.697
30.52000 361.151
30.56000 340.623
30.60000 345.914
30.64000 353.841
30.68000 364.800
30.72000 356.557
30.76000 365.033
30.80000 370.425
30.84000 388.240
30.88000 376.474
30.92000 394.660
30.96000 447.512
31.00000 482.310
31.04000 547.348
31.08000 634.286
31.12000 760.036
31.16000 931.215
31.20000 1103.989
31.24000 1341.649
31.28000 1606.978
31.32000 1701.737
31.36000 1805.500
31.40000 1744.591
31.44000 1602.581
31.48000 1418.308
31.52000 1186.810
31.56000 941.774
31.60000 743.687
31.64000 602.569
31.68000 522.107
31.72000 471.703
31.76000 416.317
31.80000 399.864
31.84000 380.971
31.88000 364.027
31.92000 367.812
31.96000 355.653
32.00000 347.305
32.04000 324.703
32.08000 330.659
32.12000 340.030
32.16000 337.979
32.20000 329.549
32.24000 327.255
32.28000 319.916
32.32000 324.335
32.36000 329.503
32.40000 327.677
32.44000 322.743
32.48000 325.810
32.52000 320.778
32.56000 325.780
32.60000 333.192
32.64000 297.733
32.68000 315.880
32.72000 315.956
32.76000 323.400
32.80000 338.227
32.84000 397.588
32.88000 450.006
32.92000 504.435
32.96000 515.475
33.00000 523.942
33.04000 488.911
33.08000 435.026
33.12000 360.144
33.16000 337.832
33.20000 312.627
33.24000 288.881
33.28000 265.202
33.32000 287.374
33.36000 286.345
33.40000 292.179
33.44000 295.555
33.48000 289.456
33.52000 293.063
33.56000 293.397
33.60000 290.607
33.64000 297.363
33.68000 288.792
33.72000 280.812
33.76000 289.312
33.80000 296.726
33.84000 293.978
33.88000 286.310
33.92000 287.534
33.96000 312.895
34.00000 297.912
34.04000 294.573
34.08000 301.107
34.12000 298.759
34.16000 312.193
34.20000 323.090
34.24000 308.674
34.28000 305.878
34.32000 321.595
34.36000 303.861
34.40000 292.336
34.44000 330.850
34.48000 320.201
34.52000 318.185
34.56000 304.445
34.60000 302.290
34.64000 300.341
34.68000 293.464
34.72000 292.586
34.76000 289.583
34.80000 280.454
34.84000 272.230
34.88000 274.790
34.92000 275.490
34.96000 264.644
35.00000 268.372
35.04000 265.953
35.08000 269.656
35.12000 272.496
35.16000 274.426
35.20000 274.027
35.24000 273.052
35.28000 267.100
35.32000 260.003
35.36000 274.070
35.40000 261.797
35.44000 270.522
35.48000 264.935
35.52000 256.246
35.56000 250.284
35.60000 258.504
35.64000 275.085
35.68000 263.305
35.72000 258.091
35.76000 253.891
35.80000 264.253
35.84000 241.435
35.88000 268.324
35.92000 262.023
35.96000 256.986
36.00000 254.488
36.04000 253.828
36.08000 244.213
36.12000 255.416
36.16000 249.420
36.20000 250.134
36.24000 252.680
36.28000 240.821
36.32000 248.115
36.36000 256.736
36.40000 253.654
36.44000 251.098
36.48000 252.903
36.52000 248.376
36.56000 240.395
36.60000 254.351
36.64000 242.635
36.68000 249.279
36.72000 258.799
36.76000 248.277
36.80000 234.159
36.84000 269.162
36.88000 285.825
36.92000 260.700
36.96000 270.596
37.00000 271.217
37.04000 281.946
37.08000 279.812
37.12000 271.418
37.16000 261.794
37.20000 249.470
37.24000 256.937
37.28000 247.121
37.32000 242.722
37.36000 249.635
37.40000 250.320
37.44000 248.998
37.48000 249.048
37.52000 246.094
37.56000 256.752
37.60000 251.839
37.64000 250.883
37.68000 251.632
37.72000 242.780
37.76000 247.163
37.80000 250.170
37.84000 236.474
37.88000 250.611
37.92000 255.925
37.96000 245.343
38.00000 247.549
38.04000 242.657
38.08000 256.773
38.12000 265.947
38.16000 254.807
38.20000 271.056
38.24000 273.152
38.28000 280.249
38.32000 308.864
38.36000 333.536
38.40000 360.743
38.44000 421.924
38.48000 498.929
38.52000 593.955
38.56000 681.309
38.60000 782.992
38.64000 878.288
38.68000 919.557
38.72000 949.718
38.76000 903.016
38.80000 881.401
38.84000 773.987
38.88000 657.355
38.92000 564.070
38.96000 441.624
39.00000 367.321
39.04000 310.460
39.08000 288.352
39.12000 264.501
39.16000 247.161
39.20000 248.714
39.24000 229.312
39.28000 220.109
39.32000 239.137
39.36000 236.016
39.40000 228.459
39.44000 227.574
39.48000 227.361
39.52000 224.848
39.56000 229.626
39.60000 232.363
39.64000 227.323
39.68000 226.842
39.72000 227.516
39.76000 227.153
39.80000 222.725
39.84000 215.373
39.88000 206.267
39.92000 228.517
39.96000 225.870
40.00000 227.458
40.04000 224.601
40.08000 223.230
40.12000 225.308
40.16000 221.929
40.20000 220.809
40.24000 228.816
40.28000 219.229
40.32000 214.793
40.36000 223.068
40.40000 224.832
40.44000 214.612
40.48000 211.916
40.52000 219.492
40.56000 227.201
40.60000 204.806
40.64000 210.535
40.68000 212.290
40.72000 213.750
40.76000 220.780
40.80000 200.608
40.84000 200.669
40.88000 218.567
40.92000 206.563
40.96000 208.476
41.00000 209.521
41.04000 204.194
41.08000 209.549
41.12000 205.697
41.16000 200.985
41.20000 216.348
41.24000 199.439
41.28000 197.147
41.32000 208.748
41.36000 206.373
41.40000 200.289
41.44000 202.139
41.48000 202.752
41.52000 203.423
41.56000 205.829
41.60000 211.304
41.64000 206.270
41.68000 198.618
41.72000 220.866
41.76000 197.322
41.80000 210.807
41.84000 201.715
41.88000 204.324
41.92000 198.492
41.96000 209.170
42.00000 197.870
42.04000 196.799
42.08000 201.415
42.12000 194.250
42.16000 214.276
42.20000 197.757
42.24000 206.782
42.28000 197.154
42.32000 202.917
42.36000 205.801
42.40000 203.516
42.44000 210.221
42.48000 191.556
42.52000 195.493
42.56000 206.613
42.60000 199.725
42.64000 200.017
42.68000 198.444
42.72000 190.535
42.76000 211.524
42.80000 201.266
42.84000 203.039
42.88000 189.063
42.92000 190.885
42.96000 186.033
43.00000 201.230
43.04000 194.446
43.08000 190.222
43.12000 204.445
43.16000 197.146
43.20000 203.464
43.24000 198.083
43.28000 188.354
43.32000 191.078
43.36000 182.139
43.40000 188.909
43.44000 184.594
43.48000 201.668
43.52000 188.717
43.56000 185.605
43.60000 182.225
43.64000 188.578
43.68000 199.429
43.72000 196.909
43.76000 204.725
43.80000 182.592
43.84000 188.497
43.88000 192.925
43.92000 182.813
43.96000 191.097
44.00000 193.560
44.04000 195.838
44.08000 199.453
44.12000 184.016
44.16000 194.532
44.20000 193.594
44.24000 196.777
44.28000 193.075
44.32000 195.684
44.36000 203.512
44.40000 212.478
44.44000 205.887
44.48000 200.176
44.52000 204.780
44.56000 202.777
44.60000 198.972
44.64000 206.524
44.68000 218.932
44.72000 231.775
44.76000 225.438
44.80000 225.501
44.84000 251.269
44.88000 245.216
44.92000 245.479
44.96000 263.859
45.00000 274.442
45.04000 263.684
45.08000 268.276
45.12000 281.125
45.16000 263.074
45.20000 258.365
45.24000 246.083
45.28000 241.569
45.32000 248.564
45.36000 229.426
45.40000 232.168
45.44000 225.002
45.48000 226.855
45.52000 219.463
45.56000 207.015
45.60000 200.205
45.64000 210.222
45.68000 200.618
45.72000 198.792
45.76000 186.727
45.80000 190.788
45.84000 189.271
45.88000 187.537
45.92000 179.157
45.96000 171.432
46.00000 177.268
46.04000 176.900
46.08000 183.722
46.12000 186.858
46.16000 188.184
46.20000 178.532
46.24000 179.917
46.28000 164.943
46.32000 171.825
46.36000 184.284
46.40000 180.390
46.44000 180.536
46.48000 177.166
46.52000 175.091
46.56000 179.206
46.60000 181.908
46.64000 174.273
46.68000 180.171
46.72000 183.250
46.76000 166.178
46.80000 159.181
46.84000 159.684
46.88000 166.475
46.92000 175.955
46.96000 169.137
47.00000 172.324
47.04000 162.647
47.08000 171.304
47.12000 170.154
47.16000 167.489
47.20000 169.541
47.24000 153.661
47.28000 160.209
47.32000 167.914
47.36000 159.808
47.40000 156.627
47.44000 161.431
47.48000 163.793
47.52000 163.796
47.56000 162.672
47.60000 160.551
47.64000 150.134
47.68000 162.717
47.72000 150.995
47.76000 156.891
47.80000 152.541
47.84000 143.300
47.88000 165.113
47.92000 162.090
47.96000 153.355
48.00000 156.760
48.04000 145.982
48.08000 150.726
48.12000 146.551
48.16000 153.818
48.20000 156.858
48.24000 157.326
48.28000 158.666
48.32000 153.798
48.36000 160.696
48.40000 163.660
48.44000 166.214
48.48000 168.860
48.52000 146.249
48.56000 151.085
48.60000 161.142
48.64000 162.089
48.68000 154.658
48.72000 157.431
48.76000 158.692
48.80000 151.361
48.84000 151.331
48.88000 157.333
48.92000 157.589
48.96000 140.671
49.00000 151.756
49.04000 144.555
49.08000 142.151
49.12000 145.724
49.16000 159.265
49.20000 141.053
49.24000 154.089
49.28000 146.415
49.32000 147.835
49.36000 149.165
49.40000 153.978
49.44000 151.534
49.48000 153.859
49.52000 148.620
49.56000 144.571
49.60000 155.133
49.64000 145.939
49.68000 164.624
49.72000 141.050
49.76000 153.907
49.80000 160.575
49.84000 157.463
49.88000 147.607
49.92000 152.339
49.96000 154.220
50.00000 153.582
50.04000 156.753
50.08000 153.969
50.12000 144.900
50.16000 151.374
50.20000 153.948
50.24000 148.611
50.28000 157.568
50.32000 156.380
50.36000 163.063
50.40000 173.494
50.44000 187.043
50.48000 180.761
50.52000 185.354
50.56000 188.045
50.60000 194.944
50.64000 173.620
50.68000 183.147
50.72000 177.816
50.76000 178.968
50.80000 184.738
50.84000 171.553
50.88000 177.957
50.92000 160.356
50.96000 163.798
51.00000 152.022
51.04000 150.129
51.08000 144.338
51.12000 155.660
51.16000 147.652
51.20000 153.822
51.24000 157.886
51.28000 146.494
51.32000 142.501
51.36000 155.276
51.40000 155.123
51.44000 151.227
51.48000 148.392
51.52000 144.198
51.56000 142.453
51.60000 148.820
51.64000 142.701
51.68000 143.022
51.72000 139.528
51.76000 141.056
51.80000 140.876
51.84000 139.603
51.88000 147.687
51.92000 142.651
51.96000 139.483
52.00000 139.616
52.04000 138.787
52.08000 136.929
52.12000 139.970
52.16000 134.702
52.20000 128.318
52.24000 139.114
52.28000 145.825
52.32000 129.819
52.36000 142.520
52.40000 152.445
52.44000 142.094
52.48000 143.022
52.52000 139.409
52.56000 135.697
52.60000 143.126
52.64000 134.130
52.68000 123.479
52.72000 136.686
52.76000 138.902
52.80000 143.461
52.84000 131.091
52.88000 138.869
52.92000 146.189
52.96000 144.544
53.00000 136.712
53.04000 145.290
53.08000 139.958
53.12000 135.937
53.16000 141.914
53.20000 148.345
53.24000 147.769
53.28000 144.930
53.32000 138.688
53.36000 157.321
53.40000 149.106
53.44000 144.176
53.48000 141.362
53.52000 153.969
53.56000 157.680
53.60000 144.791
53.64000 134.127
53.68000 140.505
53.72000 133.591
53.76000 135.014
53.80000 144.282
53.84000 138.745
53.88000 133.298
53.92000 141.739
53.96000 140.018
54.00000 141.789
54.04000 140.411
54.08000 145.326
54.12000 139.745
54.16000 133.576
54.20000 139.622
54.24000 134.752
54.28000 145.534
54.32000 137.908
54.36000 135.332
54.40000 132.135
54.44000 130.924
54.48000 142.547
54.52000 138.594
54.56000 130.447
54.60000 137.007
54.64000 132.273
54.68000 122.639
54.72000 130.597
54.76000 139.168
54.80000 135.890
54.84000 137.888
54.88000 137.898
54.92000 134.814
54.96000 132.288
55.00000 137.307
55.04000 141.254
55.08000 146.138
55.12000 142.196
55.16000 138.896
55.20000 151.425
55.24000 143.692
55.28000 160.457
55.32000 154.802
55.36000 166.587
55.40000 171.282
55.44000 184.344
55.48000 208.195
55.52000 213.027
55.56000 262.235
55.60000 280.890
55.64000 320.968
55.68000 376.365
55.72000 421.093
55.76000 486.505
55.80000 516.738
55.84000 535.869
55.88000 596.073
55.92000 588.773
55.96000 580.804
56.00000 564.850
56.04000 507.557
56.08000 479.385
56.12000 415.896
56.16000 359.719
56.20000 306.081
56.24000 271.191
56.28000 244.560
56.32000 213.632
56.36000 184.258
56.40000 182.168
56.44000 177.444
56.48000 147.078
56.52000 153.314
56.56000 162.928
56.60000 134.966
56.64000 138.558
56.68000 137.717
56.72000 141.667
56.76000 141.678
56.80000 130.688
56.84000 133.634
56.88000 117.713
56.92000 136.665
56.96000 133.935
57.00000 131.191
57.04000 125.358
57.08000 130.349
57.12000 130.249
57.16000 141.173
57.20000 118.962
57.24000 126.629
57.28000 126.119
57.32000 120.570
57.36000 127.297
57.40000 119.705
57.44000 116.215
57.48000 123.360
57.52000 116.202
57.56000 108.175
57.60000 118.613
57.64000 117.975
57.68000 122.511
57.72000 128.382
57.76000 124.569
57.80000 122.724
57.84000 122.078
57.88000 122.669
57.92000 114.068
57.96000 126.645
58.00000 136.832
58.04000 124.475
58.08000 122.985
58.12000 121.385
58.16000 113.728
58.20000 120.098
58.24000 121.130
58.28000 122.051
58.32000 117.379
58.36000 120.925
58.40000 129.164
58.44000 120.581
58.48000 111.929
58.52000 112.355
58.56000 112.642
58.60000 112.783
58.64000 122.063
58.68000 116.251
58.72000 124.467
58.76000 115.653
58.80000 109.339
58.84000 122.609
58.88000 113.613
58.92000 121.090
58.96000 118.632
59.00000 125.605
59.04000 124.157
59.08000 113.586
59.12000 116.457
59.16000 108.835
59.20000 121.535
59.24000 117.287
59.28000 111.413
59.32000 107.893
59.36000 124.584
59.40000 119.882
59.44000 108.067
59.48000 118.031
59.52000 110.892
59.56000 109.004
59.60000 117.852
59.64000 116.277
59.68000 126.955
59.72000 113.884
59.76000 117.213
59.80000 112.373
59.84000 115.288
59.88000 112.736
59.92000 120.134
59.96000 111.952
60.00000 115.703
60.04000 115.308
60.08000 115.180
60.12000 124.429
60.16000 117.322
60.20000 123.635
60.24000 124.038
60.28000 118.653
60.32000 122.484
60.36000 117.999
60.40000 113.202
60.44000 116.752
60.48000 109.608
60.52000 118.805
60.56000 115.436
60.60000 124.356
60.64000 106.475
60.68000 113.024
60.72000 110.364
60.76000 111.620
60.80000 132.149
60.84000 121.432
60.88000 116.737
60.92000 116.470
60.96000 115.316
61.00000 111.042
61.04000 115.531
61.08000 112.194
61.12000 113.690
61.16000 119.894
61.20000 117.601
61.24000 118.008
61.28000 117.856
61.32000 125.258
61.36000 120.959
61.40000 121.702
61.44000 113.705
61.48000 132.903
61.52000 157.281
61.56000 219.795
61.60000 272.586
61.64000 295.413
61.68000 291.151
61.72000 299.636
61.76000 271.749
61.80000 218.364
61.84000 166.422
61.88000 143.494
61.92000 134.564
61.96000 124.935
62.00000 124.479
62.04000 130.448
62.08000 129.006
62.12000 129.919
62.16000 124.810
62.20000 123.074
62.24000 118.819
62.28000 122.316
62.32000 124.722
62.36000 122.544
62.40000 121.599
62.44000 131.111
62.48000 130.256
62.52000 133.212
62.56000 123.664
62.60000 127.670
62.64000 129.972
62.68000 125.037
62.72000 123.722
62.76000 128.642
62.80000 130.860
62.84000 131.238
62.88000 126.565
62.92000 135.565
62.96000 134.631
63.00000 130.274
63.04000 128.967
63.08000 132.573
63.12000 139.213
63.16000 122.746
63.20000 143.290
63.24000 133.471
63.28000 126.016
63.32000 138.592
63.36000 127.561
63.40000 131.380
63.44000 129.434
63.48000 124.226
63.52000 142.676
63.56000 137.951
63.60000 145.506
63.64000 128.758
63.68000 125.385
63.72000 139.566
63.76000 127.371
63.80000 140.893
63.84000 137.579
63.88000 137.766
63.92000 141.730
63.96000 137.137
64.00000 140.099
64.04000 131.107
64.08000 142.523
64.12000 137.447
64.16000 142.522
64.20000 149.804
64.24000 148.407
64.28000 152.342
64.32000 161.266
64.36000 151.693
64.40000 148.689
64.44000 147.323
64.48000 153.493
64.52000 159.124
64.56000 162.187
64.60000 165.063
64.64000 154.263
64.68000 168.631
64.72000 179.906
64.76000 175.690
64.80000 170.640
64.84000 172.208
64.88000 175.209
64.92000 187.547
64.96000 192.544
65.00000 197.136
65.04000 203.556
65.08000 195.176
65.12000 203.646
65.16000 224.389
65.20000 226.274
65.24000 235.149
65.28000 245.594
65.32000 261.184
65.36000 280.178
65.40000 293.196
65.44000 297.843
65.48000 313.356
65.52000 348.754
65.56000 376.069
65.60000 414.276
65.64000 495.284
65.68000 634.617
65.72000 1036.943
65.76000 1564.191
65.80000 1997.293
65.84000 2154.738
65.88000 2124.906
65.92000 1996.625
65.96000 1581.099
66.00000 1044.485
66.04000 641.592
66.08000 471.256
66.12000 398.784
66.16000 383.631
66.20000 379.152
66.24000 425.496
66.28000 515.115
66.32000 569.359
66.36000 627.755
66.40000 635.573
66.44000 639.942
66.48000 608.981
66.52000 538.183
66.56000 457.300
66.60000 381.526
66.64000 359.296
66.68000 368.712
66.72000 377.186
66.76000 359.110
66.80000 355.593
66.84000 352.148
66.88000 368.569
66.92000 378.540
66.96000 373.424
67.00000 375.510
67.04000 369.106
67.08000 383.938
67.12000 396.749
67.16000 386.428
67.20000 401.283
67.24000 393.625
67.28000 409.024
67.32000 417.751
67.36000 403.146
67.40000 414.783
67.44000 410.400
67.48000 428.455
67.52000 427.732
67.56000 425.502
67.60000 440.113
67.64000 446.737
67.68000 461.250
67.72000 463.026
67.76000 492.258
67.80000 466.860
67.84000 480.909
67.88000 489.587
67.92000 496.682
67.96000 492.956
68.00000 502.100
68.04000 521.663
68.08000 525.681
68.12000 518.337
68.16000 540.866
68.20000 573.036
68.24000 572.206
68.28000 562.604
68.32000 617.529
68.36000 623.303
68.40000 665.254
68.44000 656.012
68.48000 678.931
68.52000 721.665
68.56000 783.424
68.60000 866.807
68.64000 1011.782
68.68000 1186.646
68.72000 1354.150
68.76000 1519.733
68.80000 1776.329
68.84000 2032.676
68.88000 2594.717
68.92000 4061.459
68.96000 11537.494
69.00000 24959.443
69.04000 37871.574
69.08000 44396.371
69.12000 47005.512
69.16000 50107.816
69.20000 48335.734
69.24000 38208.445
69.28000 28753.504
69.32000 23839.594
69.36000 22183.732
69.40000 17683.408
69.44000 10795.294
69.48000 4782.547
69.52000 2115.618
69.56000 1358.470
69.60000 1078.307
69.64000 923.819
69.68000 812.905
69.72000 740.306
69.76000 672.667
69.80000 622.086
69.84000 601.311
69.88000 546.770
69.92000 535.415
69.96000 514.537
70.00000 514.153