File: XRD/XRD/07-10-2025 Dep 6/XY Data/BTO_Mapping_Theta2Theta_07-10-2025_001_19_-2-091_19-890.xy
20.00000 472.273
20.04000 485.273
20.08000 470.430
20.12000 461.787
20.16000 481.585
20.20000 451.296
20.24000 455.832
20.28000 463.275
20.32000 461.293
20.36000 457.132
20.40000 456.754
20.44000 462.986
20.48000 454.562
20.52000 458.651
20.56000 481.266
20.60000 464.793
20.64000 458.542
20.68000 461.623
20.72000 448.621
20.76000 462.108
20.80000 455.507
20.84000 456.096
20.88000 476.350
20.92000 467.932
20.96000 451.254
21.00000 447.406
21.04000 431.265
21.08000 436.607
21.12000 452.845
21.16000 463.614
21.20000 452.785
21.24000 437.393
21.28000 458.662
21.32000 457.867
21.36000 472.780
21.40000 456.307
21.44000 474.805
21.48000 443.352
21.52000 455.195
21.56000 461.440
21.60000 459.037
21.64000 471.923
21.68000 468.217
21.72000 459.289
21.76000 468.104
21.80000 490.293
21.84000 480.479
21.88000 489.458
21.92000 476.141
21.96000 496.782
22.00000 508.540
22.04000 522.005
22.08000 526.938
22.12000 522.624
22.16000 507.639
22.20000 494.428
22.24000 487.465
22.28000 470.369
22.32000 487.248
22.36000 438.899
22.40000 461.592
22.44000 470.800
22.48000 451.350
22.52000 443.264
22.56000 454.855
22.60000 423.000
22.64000 430.596
22.68000 430.074
22.72000 414.902
22.76000 435.033
22.80000 438.784
22.84000 423.263
22.88000 431.876
22.92000 423.597
22.96000 420.108
23.00000 419.040
23.04000 446.555
23.08000 411.787
23.12000 419.269
23.16000 430.486
23.20000 436.849
23.24000 421.866
23.28000 422.122
23.32000 429.095
23.36000 424.556
23.40000 436.939
23.44000 443.466
23.48000 432.735
23.52000 406.431
23.56000 435.535
23.60000 426.435
23.64000 455.327
23.68000 436.458
23.72000 430.736
23.76000 446.457
23.80000 467.811
23.84000 453.742
23.88000 476.248
23.92000 486.357
23.96000 493.979
24.00000 472.770
24.04000 504.078
24.08000 468.879
24.12000 479.142
24.16000 465.568
24.20000 437.666
24.24000 434.644
24.28000 428.618
24.32000 420.549
24.36000 435.667
24.40000 415.514
24.44000 418.965
24.48000 417.034
24.52000 407.062
24.56000 416.702
24.60000 419.219
24.64000 402.587
24.68000 406.656
24.72000 402.025
24.76000 401.970
24.80000 400.466
24.84000 410.752
24.88000 387.641
24.92000 401.595
24.96000 405.179
25.00000 404.077
25.04000 411.597
25.08000 412.842
25.12000 405.046
25.16000 400.082
25.20000 382.715
25.24000 384.639
25.28000 376.747
25.32000 388.608
25.36000 388.204
25.40000 386.080
25.44000 400.139
25.48000 401.102
25.52000 375.219
25.56000 391.749
25.60000 404.553
25.64000 377.823
25.68000 389.565
25.72000 399.936
25.76000 392.863
25.80000 401.523
25.84000 381.799
25.88000 390.685
25.92000 382.992
25.96000 376.574
26.00000 378.517
26.04000 376.678
26.08000 380.339
26.12000 413.525
26.16000 380.888
26.20000 383.901
26.24000 376.935
26.28000 370.062
26.32000 385.834
26.36000 384.940
26.40000 387.446
26.44000 373.755
26.48000 385.205
26.52000 386.046
26.56000 364.815
26.60000 372.024
26.64000 361.786
26.68000 370.846
26.72000 376.178
26.76000 387.190
26.80000 392.401
26.84000 380.175
26.88000 370.030
26.92000 375.435
26.96000 388.890
27.00000 376.444
27.04000 354.344
27.08000 369.504
27.12000 360.033
27.16000 353.212
27.20000 368.683
27.24000 381.159
27.28000 366.623
27.32000 367.250
27.36000 355.601
27.40000 361.616
27.44000 365.351
27.48000 369.929
27.52000 360.839
27.56000 373.359
27.60000 372.249
27.64000 358.909
27.68000 356.775
27.72000 377.769
27.76000 367.649
27.80000 358.824
27.84000 349.841
27.88000 385.564
27.92000 366.489
27.96000 352.074
28.00000 365.940
28.04000 363.942
28.08000 379.529
28.12000 368.665
28.16000 356.401
28.20000 363.542
28.24000 355.171
28.28000 355.055
28.32000 360.569
28.36000 353.811
28.40000 380.140
28.44000 369.620
28.48000 342.554
28.52000 354.292
28.56000 356.445
28.60000 349.294
28.64000 357.904
28.68000 349.390
28.72000 338.815
28.76000 358.146
28.80000 370.899
28.84000 340.369
28.88000 332.416
28.92000 338.731
28.96000 365.824
29.00000 348.524
29.04000 356.030
29.08000 341.193
29.12000 360.004
29.16000 338.804
29.20000 338.379
29.24000 338.551
29.28000 354.746
29.32000 368.706
29.36000 362.103
29.40000 336.205
29.44000 324.151
29.48000 353.646
29.52000 342.007
29.56000 359.970
29.60000 340.633
29.64000 351.921
29.68000 352.026
29.72000 343.069
29.76000 359.283
29.80000 363.911
29.84000 381.400
29.88000 376.493
29.92000 363.029
29.96000 376.135
30.00000 395.422
30.04000 371.637
30.08000 388.401
30.12000 390.381
30.16000 369.737
30.20000 375.251
30.24000 369.924
30.28000 370.862
30.32000 384.107
30.36000 353.561
30.40000 370.131
30.44000 375.051
30.48000 359.718
30.52000 368.290
30.56000 366.150
30.60000 377.387
30.64000 362.763
30.68000 361.007
30.72000 368.146
30.76000 357.057
30.80000 401.131
30.84000 382.003
30.88000 380.801
30.92000 411.226
30.96000 413.712
31.00000 446.456
31.04000 467.465
31.08000 512.528
31.12000 575.092
31.16000 682.954
31.20000 755.544
31.24000 886.920
31.28000 1012.579
31.32000 1098.103
31.36000 1192.991
31.40000 1247.396
31.44000 1209.254
31.48000 1076.913
31.52000 1004.617
31.56000 885.252
31.60000 732.673
31.64000 643.331
31.68000 541.065
31.72000 484.028
31.76000 456.991
31.80000 420.865
31.84000 380.055
31.88000 372.023
31.92000 373.676
31.96000 359.977
32.00000 357.073
32.04000 354.526
32.08000 339.377
32.12000 364.220
32.16000 360.702
32.20000 338.375
32.24000 349.060
32.28000 325.311
32.32000 329.365
32.36000 323.912
32.40000 348.096
32.44000 330.799
32.48000 338.514
32.52000 318.534
32.56000 302.670
32.60000 319.020
32.64000 309.131
32.68000 325.866
32.72000 316.070
32.76000 328.814
32.80000 334.759
32.84000 399.995
32.88000 455.268
32.92000 506.982
32.96000 521.646
33.00000 536.375
33.04000 498.924
33.08000 422.627
33.12000 375.646
33.16000 317.533
33.20000 304.923
33.24000 296.935
33.28000 296.936
33.32000 293.979
33.36000 296.146
33.40000 298.028
33.44000 283.092
33.48000 288.546
33.52000 293.087
33.56000 290.723
33.60000 300.055
33.64000 299.458
33.68000 302.740
33.72000 300.570
33.76000 292.217
33.80000 292.207
33.84000 305.139
33.88000 306.098
33.92000 296.170
33.96000 292.262
34.00000 289.652
34.04000 313.302
34.08000 314.285
34.12000 303.558
34.16000 303.008
34.20000 339.881
34.24000 321.396
34.28000 328.791
34.32000 331.609
34.36000 327.671
34.40000 315.847
34.44000 321.710
34.48000 321.151
34.52000 314.658
34.56000 314.776
34.60000 301.833
34.64000 314.485
34.68000 293.176
34.72000 280.431
34.76000 293.293
34.80000 283.309
34.84000 279.464
34.88000 289.612
34.92000 285.330
34.96000 266.908
35.00000 268.256
35.04000 273.399
35.08000 274.158
35.12000 274.767
35.16000 265.489
35.20000 264.179
35.24000 258.961
35.28000 267.631
35.32000 259.527
35.36000 260.438
35.40000 279.350
35.44000 272.921
35.48000 272.226
35.52000 255.647
35.56000 256.471
35.60000 266.206
35.64000 249.759
35.68000 265.335
35.72000 253.104
35.76000 259.876
35.80000 250.913
35.84000 263.908
35.88000 267.316
35.92000 255.556
35.96000 257.227
36.00000 243.498
36.04000 264.981
36.08000 263.903
36.12000 254.040
36.16000 256.776
36.20000 256.950
36.24000 250.270
36.28000 248.589
36.32000 267.978
36.36000 253.480
36.40000 252.701
36.44000 261.304
36.48000 245.944
36.52000 263.984
36.56000 244.252
36.60000 248.451
36.64000 250.191
36.68000 237.118
36.72000 252.544
36.76000 245.939
36.80000 259.788
36.84000 266.436
36.88000 253.519
36.92000 263.165
36.96000 271.511
37.00000 272.366
37.04000 245.350
37.08000 267.832
37.12000 259.288
37.16000 264.130
37.20000 255.658
37.24000 244.674
37.28000 250.724
37.32000 259.573
37.36000 248.460
37.40000 253.975
37.44000 260.219
37.48000 247.493
37.52000 261.916
37.56000 251.375
37.60000 253.915
37.64000 246.196
37.68000 248.334
37.72000 248.642
37.76000 235.412
37.80000 245.422
37.84000 250.344
37.88000 254.985
37.92000 238.058
37.96000 243.079
38.00000 262.994
38.04000 245.853
38.08000 245.322
38.12000 267.041
38.16000 256.427
38.20000 252.191
38.24000 253.357
38.28000 257.492
38.32000 274.689
38.36000 292.501
38.40000 306.267
38.44000 328.994
38.48000 388.991
38.52000 453.177
38.56000 530.324
38.60000 619.662
38.64000 729.627
38.68000 825.896
38.72000 861.699
38.76000 847.757
38.80000 791.657
38.84000 693.414
38.88000 613.519
38.92000 513.078
38.96000 424.401
39.00000 352.472
39.04000 319.117
39.08000 285.110
39.12000 269.996
39.16000 254.826
39.20000 238.900
39.24000 236.566
39.28000 234.281
39.32000 249.035
39.36000 241.048
39.40000 243.596
39.44000 233.607
39.48000 219.424
39.52000 230.371
39.56000 239.712
39.60000 232.977
39.64000 227.685
39.68000 226.608
39.72000 215.439
39.76000 227.928
39.80000 226.127
39.84000 222.134
39.88000 221.037
39.92000 225.916
39.96000 212.666
40.00000 215.096
40.04000 212.652
40.08000 223.689
40.12000 220.171
40.16000 199.912
40.20000 221.260
40.24000 212.081
40.28000 222.830
40.32000 240.271
40.36000 223.129
40.40000 226.743
40.44000 213.697
40.48000 212.984
40.52000 202.535
40.56000 209.861
40.60000 220.478
40.64000 209.691
40.68000 214.232
40.72000 208.556
40.76000 211.882
40.80000 205.458
40.84000 214.958
40.88000 199.157
40.92000 216.554
40.96000 216.499
41.00000 214.709
41.04000 212.158
41.08000 217.426
41.12000 202.846
41.16000 205.886
41.20000 206.112
41.24000 202.944
41.28000 210.336
41.32000 210.407
41.36000 212.113
41.40000 194.457
41.44000 203.335
41.48000 202.014
41.52000 209.861
41.56000 205.343
41.60000 194.344
41.64000 210.457
41.68000 211.661
41.72000 206.036
41.76000 203.786
41.80000 203.514
41.84000 204.626
41.88000 195.892
41.92000 205.920
41.96000 207.076
42.00000 200.408
42.04000 208.530
42.08000 214.972
42.12000 200.368
42.16000 215.597
42.20000 211.644
42.24000 222.778
42.28000 207.817
42.32000 198.065
42.36000 210.637
42.40000 203.017
42.44000 198.122
42.48000 198.318
42.52000 201.721
42.56000 204.697
42.60000 208.285
42.64000 203.402
42.68000 211.183
42.72000 208.088
42.76000 193.655
42.80000 197.300
42.84000 201.682
42.88000 205.482
42.92000 209.347
42.96000 201.638
43.00000 192.930
43.04000 196.976
43.08000 195.451
43.12000 189.340
43.16000 193.828
43.20000 200.439
43.24000 198.540
43.28000 184.093
43.32000 199.298
43.36000 194.021
43.40000 189.284
43.44000 191.961
43.48000 184.013
43.52000 179.570
43.56000 188.698
43.60000 190.347
43.64000 188.305
43.68000 198.223
43.72000 190.236
43.76000 200.221
43.80000 204.445
43.84000 199.372
43.88000 191.881
43.92000 187.282
43.96000 192.119
44.00000 193.489
44.04000 200.970
44.08000 198.926
44.12000 197.734
44.16000 192.902
44.20000 193.191
44.24000 190.209
44.28000 187.741
44.32000 186.658
44.36000 198.336
44.40000 192.787
44.44000 194.518
44.48000 212.276
44.52000 200.306
44.56000 210.530
44.60000 191.908
44.64000 214.870
44.68000 207.728
44.72000 209.686
44.76000 215.249
44.80000 219.869
44.84000 213.090
44.88000 231.171
44.92000 221.657
44.96000 223.238
45.00000 228.074
45.04000 230.561
45.08000 239.416
45.12000 236.162
45.16000 220.346
45.20000 220.196
45.24000 226.197
45.28000 223.506
45.32000 218.446
45.36000 214.213
45.40000 208.195
45.44000 202.229
45.48000 210.430
45.52000 205.515
45.56000 188.341
45.60000 196.023
45.64000 196.363
45.68000 198.390
45.72000 199.593
45.76000 183.874
45.80000 187.231
45.84000 175.287
45.88000 184.305
45.92000 185.585
45.96000 170.602
46.00000 180.952
46.04000 175.023
46.08000 172.491
46.12000 176.359
46.16000 176.058
46.20000 176.551
46.24000 175.888
46.28000 160.523
46.32000 173.178
46.36000 168.632
46.40000 173.795
46.44000 168.675
46.48000 171.612
46.52000 173.899
46.56000 178.787
46.60000 172.211
46.64000 179.898
46.68000 166.510
46.72000 168.604
46.76000 179.615
46.80000 174.029
46.84000 176.383
46.88000 170.318
46.92000 180.025
46.96000 178.526
47.00000 183.472
47.04000 169.920
47.08000 164.527
47.12000 161.859
47.16000 161.285
47.20000 161.271
47.24000 172.482
47.28000 164.055
47.32000 156.018
47.36000 155.987
47.40000 167.013
47.44000 156.613
47.48000 162.688
47.52000 148.422
47.56000 153.638
47.60000 164.850
47.64000 157.290
47.68000 157.217
47.72000 146.146
47.76000 164.625
47.80000 151.508
47.84000 163.431
47.88000 163.531
47.92000 155.645
47.96000 159.474
48.00000 155.176
48.04000 165.659
48.08000 157.010
48.12000 164.635
48.16000 158.752
48.20000 162.359
48.24000 162.449
48.28000 157.096
48.32000 155.015
48.36000 158.415
48.40000 168.262
48.44000 153.104
48.48000 164.335
48.52000 154.650
48.56000 157.044
48.60000 157.317
48.64000 154.336
48.68000 168.661
48.72000 150.072
48.76000 157.349
48.80000 162.706
48.84000 159.384
48.88000 154.425
48.92000 153.307
48.96000 155.986
49.00000 144.465
49.04000 144.795
49.08000 137.564
49.12000 155.384
49.16000 149.638
49.20000 166.439
49.24000 160.563
49.28000 162.630
49.32000 152.016
49.36000 155.393
49.40000 154.257
49.44000 146.937
49.48000 155.194
49.52000 152.244
49.56000 147.797
49.60000 140.503
49.64000 147.305
49.68000 162.846
49.72000 146.631
49.76000 146.481
49.80000 148.488
49.84000 147.559
49.88000 153.113
49.92000 149.937
49.96000 150.349
50.00000 152.032
50.04000 147.765
50.08000 153.131
50.12000 142.793
50.16000 146.881
50.20000 153.512
50.24000 149.583
50.28000 151.245
50.32000 161.303
50.36000 155.720
50.40000 143.312
50.44000 149.152
50.48000 151.093
50.52000 158.784
50.56000 156.170
50.60000 167.302
50.64000 166.163
50.68000 161.547
50.72000 165.676
50.76000 158.957
50.80000 161.894
50.84000 157.030
50.88000 155.175
50.92000 157.650
50.96000 157.702
51.00000 152.869
51.04000 158.057
51.08000 142.711
51.12000 151.808
51.16000 150.147
51.20000 150.737
51.24000 151.269
51.28000 152.352
51.32000 144.966
51.36000 138.698
51.40000 138.974
51.44000 141.167
51.48000 139.006
51.52000 132.362
51.56000 141.554
51.60000 142.483
51.64000 138.492
51.68000 149.001
51.72000 142.389
51.76000 134.350
51.80000 134.034
51.84000 140.690
51.88000 147.741
51.92000 143.078
51.96000 151.579
52.00000 134.165
52.04000 143.122
52.08000 142.120
52.12000 129.703
52.16000 146.188
52.20000 129.467
52.24000 135.751
52.28000 139.704
52.32000 143.499
52.36000 139.718
52.40000 130.425
52.44000 133.959
52.48000 139.120
52.52000 130.391
52.56000 138.406
52.60000 143.338
52.64000 138.863
52.68000 138.490
52.72000 131.625
52.76000 133.339
52.80000 132.976
52.84000 127.790
52.88000 137.237
52.92000 130.713
52.96000 145.020
53.00000 137.848
53.04000 136.890
53.08000 136.471
53.12000 136.360
53.16000 142.288
53.20000 150.282
53.24000 147.757
53.28000 143.508
53.32000 149.855
53.36000 147.957
53.40000 149.140
53.44000 147.005
53.48000 149.763
53.52000 155.187
53.56000 151.438
53.60000 143.220
53.64000 146.814
53.68000 139.862
53.72000 141.342
53.76000 143.008
53.80000 140.054
53.84000 139.028
53.88000 144.423
53.92000 136.861
53.96000 124.535
54.00000 138.739
54.04000 140.258
54.08000 135.020
54.12000 140.732
54.16000 136.785
54.20000 145.740
54.24000 138.952
54.28000 140.258
54.32000 138.365
54.36000 142.953
54.40000 131.355
54.44000 122.769
54.48000 136.728
54.52000 139.295
54.56000 138.557
54.60000 142.965
54.64000 135.229
54.68000 142.575
54.72000 137.483
54.76000 140.970
54.80000 141.259
54.84000 146.481
54.88000 151.022
54.92000 143.605
54.96000 143.524
55.00000 139.377
55.04000 143.320
55.08000 144.326
55.12000 147.777
55.16000 149.287
55.20000 129.017
55.24000 147.126
55.28000 153.832
55.32000 158.405
55.36000 151.272
55.40000 167.450
55.44000 178.729
55.48000 170.718
55.52000 188.486
55.56000 204.264
55.60000 207.696
55.64000 242.676
55.68000 267.537
55.72000 304.099
55.76000 337.631
55.80000 389.170
55.84000 438.632
55.88000 472.649
55.92000 509.570
55.96000 512.537
56.00000 488.495
56.04000 483.643
56.08000 451.144
56.12000 407.821
56.16000 365.777
56.20000 317.342
56.24000 270.827
56.28000 236.414
56.32000 231.661
56.36000 216.620
56.40000 186.144
56.44000 172.451
56.48000 166.544
56.52000 157.790
56.56000 145.014
56.60000 148.106
56.64000 144.291
56.68000 144.987
56.72000 149.169
56.76000 138.811
56.80000 130.895
56.84000 130.496
56.88000 130.686
56.92000 139.895
56.96000 124.811
57.00000 127.725
57.04000 125.523
57.08000 129.817
57.12000 134.254
57.16000 120.010
57.20000 126.889
57.24000 120.921
57.28000 128.710
57.32000 130.278
57.36000 129.307
57.40000 123.638
57.44000 129.177
57.48000 121.624
57.52000 125.398
57.56000 131.058
57.60000 125.429
57.64000 130.035
57.68000 132.566
57.72000 119.666
57.76000 122.619
57.80000 109.417
57.84000 116.660
57.88000 117.586
57.92000 123.134
57.96000 124.423
58.00000 133.653
58.04000 116.832
58.08000 124.581
58.12000 119.400
58.16000 119.485
58.20000 112.380
58.24000 124.726
58.28000 125.769
58.32000 122.394
58.36000 133.057
58.40000 128.242
58.44000 115.209
58.48000 115.313
58.52000 117.806
58.56000 116.630
58.60000 122.598
58.64000 114.638
58.68000 124.005
58.72000 124.891
58.76000 120.598
58.80000 112.854
58.84000 113.235
58.88000 111.160
58.92000 117.812
58.96000 108.328
59.00000 121.090
59.04000 117.524
59.08000 122.632
59.12000 120.899
59.16000 117.661
59.20000 118.567
59.24000 115.184
59.28000 117.418
59.32000 126.331
59.36000 123.605
59.40000 121.099
59.44000 116.970
59.48000 100.649
59.52000 114.896
59.56000 116.905
59.60000 111.390
59.64000 111.218
59.68000 116.712
59.72000 115.907
59.76000 124.543
59.80000 116.487
59.84000 114.738
59.88000 116.943
59.92000 122.106
59.96000 114.786
60.00000 117.263
60.04000 116.743
60.08000 118.317
60.12000 120.518
60.16000 117.884
60.20000 123.004
60.24000 110.961
60.28000 117.894
60.32000 112.033
60.36000 112.368
60.40000 110.323
60.44000 117.010
60.48000 116.539
60.52000 103.637
60.56000 123.638
60.60000 128.860
60.64000 119.784
60.68000 118.532
60.72000 119.788
60.76000 119.829
60.80000 118.408
60.84000 116.424
60.88000 109.852
60.92000 122.963
60.96000 117.718
61.00000 130.427
61.04000 121.845
61.08000 117.265
61.12000 121.604
61.16000 124.831
61.20000 117.875
61.24000 122.890
61.28000 119.056
61.32000 124.385
61.36000 120.234
61.40000 128.496
61.44000 130.281
61.48000 130.112
61.52000 153.134
61.56000 208.298
61.60000 249.346
61.64000 284.278
61.68000 293.139
61.72000 288.613
61.76000 274.852
61.80000 221.007
61.84000 178.748
61.88000 127.050
61.92000 130.782
61.96000 130.306
62.00000 129.741
62.04000 139.411
62.08000 132.514
62.12000 135.658
62.16000 113.760
62.20000 121.714
62.24000 121.367
62.28000 124.545
62.32000 129.669
62.36000 126.892
62.40000 141.549
62.44000 131.046
62.48000 131.170
62.52000 127.468
62.56000 130.932
62.60000 126.576
62.64000 128.021
62.68000 120.101
62.72000 128.234
62.76000 140.568
62.80000 136.833
62.84000 124.435
62.88000 135.093
62.92000 133.394
62.96000 136.724
63.00000 139.935
63.04000 133.220
63.08000 140.128
63.12000 125.401
63.16000 123.018
63.20000 134.585
63.24000 134.275
63.28000 128.498
63.32000 128.274
63.36000 132.576
63.40000 133.466
63.44000 130.339
63.48000 138.206
63.52000 129.337
63.56000 141.474
63.60000 147.459
63.64000 138.289
63.68000 139.959
63.72000 135.516
63.76000 135.927
63.80000 132.902
63.84000 143.034
63.88000 151.301
63.92000 141.208
63.96000 135.454
64.00000 141.912
64.04000 143.108
64.08000 151.117
64.12000 159.945
64.16000 149.771
64.20000 147.852
64.24000 150.185
64.28000 149.165
64.32000 150.419
64.36000 153.664
64.40000 161.842
64.44000 146.720
64.48000 155.993
64.52000 156.073
64.56000 156.972
64.60000 163.143
64.64000 158.163
64.68000 172.738
64.72000 166.572
64.76000 168.538
64.80000 175.560
64.84000 169.347
64.88000 185.321
64.92000 177.462
64.96000 185.004
65.00000 183.877
65.04000 191.056
65.08000 186.271
65.12000 208.620
65.16000 207.601
65.20000 207.561
65.24000 217.262
65.28000 226.176
65.32000 230.067
65.36000 249.395
65.40000 261.790
65.44000 283.319
65.48000 286.051
65.52000 308.509
65.56000 316.785
65.60000 346.967
65.64000 414.679
65.68000 551.568
65.72000 933.948
65.76000 1404.741
65.80000 1765.401
65.84000 1935.653
65.88000 1956.928
65.92000 1842.949
65.96000 1485.533
66.00000 985.704
66.04000 643.165
66.08000 459.488
66.12000 398.441
66.16000 375.900
66.20000 360.810
66.24000 375.343
66.28000 440.804
66.32000 536.396
66.36000 587.304
66.40000 618.381
66.44000 621.012
66.48000 594.233
66.52000 535.930
66.56000 453.815
66.60000 391.050
66.64000 357.214
66.68000 334.903
66.72000 356.774
66.76000 358.793
66.80000 339.782
66.84000 346.016
66.88000 343.452
66.92000 353.884
66.96000 348.406
67.00000 370.192
67.04000 367.670
67.08000 380.062
67.12000 369.409
67.16000 386.471
67.20000 395.877
67.24000 383.998
67.28000 390.905
67.32000 387.019
67.36000 397.690
67.40000 418.906
67.44000 410.876
67.48000 402.179
67.52000 411.640
67.56000 422.914
67.60000 437.813
67.64000 446.193
67.68000 458.752
67.72000 435.644
67.76000 464.954
67.80000 446.859
67.84000 473.882
67.88000 482.202
67.92000 481.766
67.96000 498.259
68.00000 487.968
68.04000 492.519
68.08000 510.489
68.12000 535.354
68.16000 550.887
68.20000 534.993
68.24000 549.792
68.28000 552.451
68.32000 598.832
68.36000 600.410
68.40000 613.703
68.44000 636.831
68.48000 682.323
68.52000 702.785
68.56000 752.384
68.60000 845.809
68.64000 959.560
68.68000 1119.667
68.72000 1280.772
68.76000 1454.398
68.80000 1648.176
68.84000 1826.522
68.88000 2270.588
68.92000 3418.257
68.96000 9413.045
69.00000 21509.453
69.04000 33888.621
69.08000 40449.172
69.12000 43219.035
69.16000 45917.934
69.20000 45317.094
69.24000 36015.637
69.28000 26666.156
69.32000 21909.555
69.36000 20543.008
69.40000 17046.527
69.44000 10397.178
69.48000 4695.293
69.52000 2061.891
69.56000 1340.748
69.60000 1042.174
69.64000 883.997
69.68000 794.228
69.72000 709.013
69.76000 681.129
69.80000 620.600
69.84000 612.741
69.88000 552.857
69.92000 527.612
69.96000 505.733
70.00000 495.864