File: XRD/XRD/07-10-2025 Dep 6/XY Data/BTO_Mapping_Theta2Theta_07-10-2025_001_44_-15-000_-25-981.xy
20.00000 477.172
20.04000 475.765
20.08000 457.799
20.12000 466.619
20.16000 483.037
20.20000 462.622
20.24000 454.425
20.28000 479.940
20.32000 477.699
20.36000 464.883
20.40000 467.971
20.44000 461.161
20.48000 475.756
20.52000 441.662
20.56000 465.894
20.60000 469.524
20.64000 467.540
20.68000 457.432
20.72000 455.533
20.76000 453.303
20.80000 437.560
20.84000 471.206
20.88000 461.173
20.92000 465.098
20.96000 467.670
21.00000 473.527
21.04000 473.665
21.08000 475.557
21.12000 457.617
21.16000 453.658
21.20000 468.861
21.24000 450.094
21.28000 464.633
21.32000 466.857
21.36000 461.586
21.40000 466.230
21.44000 461.152
21.48000 457.787
21.52000 473.683
21.56000 480.242
21.60000 470.321
21.64000 464.092
21.68000 465.150
21.72000 489.735
21.76000 491.935
21.80000 489.959
21.84000 513.047
21.88000 543.290
21.92000 535.375
21.96000 543.917
22.00000 562.581
22.04000 588.523
22.08000 563.255
22.12000 528.908
22.16000 550.172
22.20000 538.424
22.24000 521.481
22.28000 508.816
22.32000 482.946
22.36000 453.331
22.40000 472.312
22.44000 451.040
22.48000 465.669
22.52000 452.615
22.56000 448.293
22.60000 433.592
22.64000 441.677
22.68000 427.506
22.72000 438.626
22.76000 449.933
22.80000 427.648
22.84000 438.841
22.88000 441.541
22.92000 448.274
22.96000 442.084
23.00000 432.737
23.04000 450.765
23.08000 430.798
23.12000 425.966
23.16000 422.522
23.20000 431.670
23.24000 420.905
23.28000 438.010
23.32000 428.879
23.36000 432.815
23.40000 429.046
23.44000 442.763
23.48000 422.719
23.52000 430.773
23.56000 425.871
23.60000 433.836
23.64000 425.196
23.68000 423.559
23.72000 431.939
23.76000 449.195
23.80000 433.862
23.84000 454.362
23.88000 428.063
23.92000 441.543
23.96000 451.251
24.00000 439.912
24.04000 430.235
24.08000 430.948
24.12000 428.934
24.16000 421.618
24.20000 435.655
24.24000 422.107
24.28000 418.092
24.32000 412.362
24.36000 413.629
24.40000 398.135
24.44000 408.595
24.48000 398.038
24.52000 405.269
24.56000 402.807
24.60000 400.361
24.64000 395.247
24.68000 403.527
24.72000 409.727
24.76000 413.607
24.80000 395.689
24.84000 408.410
24.88000 401.233
24.92000 406.234
24.96000 424.491
25.00000 412.776
25.04000 401.293
25.08000 397.603
25.12000 378.538
25.16000 392.560
25.20000 374.458
25.24000 393.800
25.28000 380.800
25.32000 390.537
25.36000 396.560
25.40000 383.690
25.44000 405.305
25.48000 387.375
25.52000 404.850
25.56000 388.666
25.60000 370.724
25.64000 405.425
25.68000 379.349
25.72000 383.461
25.76000 390.441
25.80000 393.005
25.84000 388.929
25.88000 404.957
25.92000 360.139
25.96000 387.773
26.00000 376.404
26.04000 359.920
26.08000 382.604
26.12000 386.772
26.16000 379.785
26.20000 391.160
26.24000 381.455
26.28000 377.744
26.32000 383.951
26.36000 374.831
26.40000 378.221
26.44000 375.335
26.48000 369.241
26.52000 373.449
26.56000 362.720
26.60000 379.280
26.64000 352.231
26.68000 388.680
26.72000 376.561
26.76000 383.556
26.80000 374.307
26.84000 369.508
26.88000 372.762
26.92000 384.667
26.96000 376.474
27.00000 363.634
27.04000 377.656
27.08000 373.215
27.12000 367.668
27.16000 373.123
27.20000 370.115
27.24000 373.499
27.28000 372.806
27.32000 367.081
27.36000 349.818
27.40000 378.783
27.44000 374.641
27.48000 378.994
27.52000 376.662
27.56000 361.018
27.60000 361.600
27.64000 371.246
27.68000 376.647
27.72000 360.833
27.76000 367.777
27.80000 352.255
27.84000 361.928
27.88000 359.289
27.92000 363.714
27.96000 364.934
28.00000 378.010
28.04000 367.727
28.08000 361.832
28.12000 362.275
28.16000 355.249
28.20000 349.109
28.24000 370.717
28.28000 370.319
28.32000 381.601
28.36000 357.517
28.40000 354.225
28.44000 356.816
28.48000 362.923
28.52000 339.188
28.56000 355.252
28.60000 352.468
28.64000 355.212
28.68000 356.970
28.72000 358.372
28.76000 359.544
28.80000 356.616
28.84000 351.842
28.88000 350.941
28.92000 361.454
28.96000 337.114
29.00000 348.808
29.04000 356.283
29.08000 353.658
29.12000 344.083
29.16000 346.573
29.20000 348.637
29.24000 355.556
29.28000 348.582
29.32000 325.418
29.36000 347.967
29.40000 330.315
29.44000 348.154
29.48000 332.963
29.52000 348.881
29.56000 367.176
29.60000 353.957
29.64000 350.740
29.68000 351.207
29.72000 379.116
29.76000 364.914
29.80000 372.041
29.84000 391.461
29.88000 391.803
29.92000 409.458
29.96000 423.378
30.00000 446.416
30.04000 421.261
30.08000 419.025
30.12000 414.755
30.16000 417.766
30.20000 400.917
30.24000 382.430
30.28000 389.431
30.32000 355.498
30.36000 361.424
30.40000 371.681
30.44000 374.899
30.48000 366.888
30.52000 366.553
30.56000 385.169
30.60000 389.626
30.64000 382.097
30.68000 366.166
30.72000 384.887
30.76000 395.304
30.80000 387.244
30.84000 397.955
30.88000 427.937
30.92000 465.627
30.96000 501.095
31.00000 567.265
31.04000 675.333
31.08000 816.775
31.12000 1001.848
31.16000 1282.574
31.20000 1570.344
31.24000 1857.356
31.28000 2114.376
31.32000 2285.052
31.36000 2306.404
31.40000 2217.739
31.44000 2013.148
31.48000 1727.827
31.52000 1428.502
31.56000 1093.800
31.60000 835.587
31.64000 642.421
31.68000 560.574
31.72000 479.673
31.76000 438.016
31.80000 404.595
31.84000 376.202
31.88000 371.381
31.92000 366.499
31.96000 362.539
32.00000 344.159
32.04000 336.551
32.08000 341.584
32.12000 346.817
32.16000 332.476
32.20000 330.215
32.24000 323.348
32.28000 329.362
32.32000 320.503
32.36000 313.783
32.40000 322.745
32.44000 306.719
32.48000 316.224
32.52000 313.995
32.56000 322.533
32.60000 308.211
32.64000 318.459
32.68000 298.052
32.72000 301.807
32.76000 313.534
32.80000 341.644
32.84000 389.562
32.88000 451.212
32.92000 484.842
32.96000 518.969
33.00000 527.199
33.04000 506.010
33.08000 434.107
33.12000 375.330
33.16000 332.188
33.20000 307.924
33.24000 311.229
33.28000 304.980
33.32000 286.353
33.36000 296.096
33.40000 295.691
33.44000 278.360
33.48000 295.828
33.52000 300.198
33.56000 298.303
33.60000 295.156
33.64000 292.140
33.68000 290.002
33.72000 298.382
33.76000 289.524
33.80000 277.461
33.84000 294.838
33.88000 313.769
33.92000 301.081
33.96000 298.722
34.00000 282.356
34.04000 314.652
34.08000 302.371
34.12000 308.805
34.16000 303.054
34.20000 305.583
34.24000 309.843
34.28000 302.647
34.32000 305.063
34.36000 310.692
34.40000 317.105
34.44000 306.526
34.48000 309.419
34.52000 310.371
34.56000 297.970
34.60000 300.580
34.64000 302.111
34.68000 295.463
34.72000 283.292
34.76000 302.558
34.80000 296.251
34.84000 288.575
34.88000 279.902
34.92000 267.373
34.96000 276.158
35.00000 276.177
35.04000 268.821
35.08000 251.073
35.12000 265.975
35.16000 261.675
35.20000 273.257
35.24000 271.417
35.28000 275.943
35.32000 265.347
35.36000 271.109
35.40000 273.514
35.44000 272.464
35.48000 256.710
35.52000 267.112
35.56000 278.433
35.60000 274.389
35.64000 262.404
35.68000 265.018
35.72000 269.194
35.76000 267.019
35.80000 255.153
35.84000 262.585
35.88000 266.799
35.92000 251.713
35.96000 266.701
36.00000 245.613
36.04000 256.126
36.08000 259.775
36.12000 246.502
36.16000 270.124
36.20000 248.763
36.24000 256.092
36.28000 263.313
36.32000 251.206
36.36000 265.570
36.40000 264.432
36.44000 242.106
36.48000 258.797
36.52000 267.453
36.56000 251.689
36.60000 245.740
36.64000 269.374
36.68000 263.036
36.72000 257.014
36.76000 251.037
36.80000 262.405
36.84000 267.789
36.88000 273.120
36.92000 274.183
36.96000 287.762
37.00000 272.888
37.04000 286.443
37.08000 261.596
37.12000 277.153
37.16000 265.831
37.20000 271.074
37.24000 240.515
37.28000 259.455
37.32000 259.648
37.36000 256.803
37.40000 255.560
37.44000 253.288
37.48000 255.343
37.52000 248.806
37.56000 246.360
37.60000 254.491
37.64000 246.623
37.68000 259.713
37.72000 251.640
37.76000 255.106
37.80000 253.125
37.84000 244.366
37.88000 254.056
37.92000 253.944
37.96000 253.374
38.00000 254.281
38.04000 245.312
38.08000 241.627
38.12000 259.853
38.16000 259.634
38.20000 273.781
38.24000 285.214
38.28000 310.818
38.32000 336.632
38.36000 382.074
38.40000 438.162
38.44000 478.927
38.48000 562.939
38.52000 658.725
38.56000 739.728
38.60000 834.918
38.64000 903.910
38.68000 930.082
38.72000 956.200
38.76000 901.342
38.80000 838.202
38.84000 743.900
38.88000 622.800
38.92000 498.322
38.96000 456.252
39.00000 349.089
39.04000 327.652
39.08000 299.204
39.12000 264.385
39.16000 251.637
39.20000 250.064
39.24000 250.252
39.28000 246.502
39.32000 233.378
39.36000 240.182
39.40000 230.473
39.44000 230.640
39.48000 221.802
39.52000 236.242
39.56000 218.861
39.60000 237.658
39.64000 232.066
39.68000 232.908
39.72000 223.024
39.76000 237.845
39.80000 237.297
39.84000 219.291
39.88000 224.325
39.92000 206.915
39.96000 230.509
40.00000 221.069
40.04000 224.006
40.08000 219.381
40.12000 224.212
40.16000 212.688
40.20000 217.304
40.24000 219.488
40.28000 208.780
40.32000 217.244
40.36000 224.629
40.40000 229.724
40.44000 231.997
40.48000 221.771
40.52000 220.529
40.56000 223.178
40.60000 220.782
40.64000 221.892
40.68000 201.885
40.72000 206.456
40.76000 216.386
40.80000 222.268
40.84000 217.074
40.88000 198.487
40.92000 217.761
40.96000 211.442
41.00000 212.232
41.04000 196.720
41.08000 220.393
41.12000 201.913
41.16000 203.784
41.20000 212.061
41.24000 202.010
41.28000 195.405
41.32000 206.277
41.36000 205.451
41.40000 197.884
41.44000 213.081
41.48000 198.262
41.52000 202.674
41.56000 207.478
41.60000 208.616
41.64000 206.728
41.68000 209.841
41.72000 196.406
41.76000 200.269
41.80000 211.534
41.84000 209.342
41.88000 206.191
41.92000 200.519
41.96000 217.834
42.00000 214.778
42.04000 200.653
42.08000 208.325
42.12000 195.613
42.16000 201.003
42.20000 198.165
42.24000 203.887
42.28000 198.853
42.32000 204.268
42.36000 203.775
42.40000 196.974
42.44000 201.762
42.48000 195.261
42.52000 191.641
42.56000 199.073
42.60000 197.979
42.64000 201.215
42.68000 191.144
42.72000 199.433
42.76000 206.928
42.80000 189.119
42.84000 199.629
42.88000 204.990
42.92000 198.508
42.96000 198.897
43.00000 199.664
43.04000 189.191
43.08000 194.724
43.12000 194.429
43.16000 201.883
43.20000 190.502
43.24000 189.212
43.28000 192.797
43.32000 191.975
43.36000 186.782
43.40000 198.530
43.44000 201.007
43.48000 197.748
43.52000 179.688
43.56000 198.726
43.60000 192.255
43.64000 190.790
43.68000 173.623
43.72000 187.950
43.76000 194.527
43.80000 187.737
43.84000 187.079
43.88000 182.952
43.92000 172.157
43.96000 186.108
44.00000 181.448
44.04000 180.546
44.08000 193.750
44.12000 188.749
44.16000 201.207
44.20000 210.374
44.24000 194.656
44.28000 201.565
44.32000 202.750
44.36000 200.214
44.40000 187.553
44.44000 199.808
44.48000 202.330
44.52000 208.167
44.56000 209.073
44.60000 225.847
44.64000 212.810
44.68000 225.176
44.72000 227.276
44.76000 245.760
44.80000 247.522
44.84000 268.879
44.88000 274.495
44.92000 285.987
44.96000 278.652
45.00000 285.891
45.04000 288.397
45.08000 290.760
45.12000 265.295
45.16000 269.132
45.20000 260.319
45.24000 250.310
45.28000 246.472
45.32000 236.088
45.36000 225.663
45.40000 221.834
45.44000 224.132
45.48000 200.523
45.52000 211.732
45.56000 206.231
45.60000 205.522
45.64000 201.993
45.68000 209.908
45.72000 195.013
45.76000 197.548
45.80000 183.697
45.84000 183.825
45.88000 190.086
45.92000 191.998
45.96000 183.881
46.00000 177.343
46.04000 174.951
46.08000 171.269
46.12000 174.667
46.16000 178.891
46.20000 178.498
46.24000 166.360
46.28000 169.183
46.32000 178.452
46.36000 177.659
46.40000 177.578
46.44000 170.660
46.48000 184.973
46.52000 167.173
46.56000 163.955
46.60000 179.127
46.64000 166.456
46.68000 169.752
46.72000 164.885
46.76000 155.645
46.80000 171.699
46.84000 182.526
46.88000 172.727
46.92000 175.101
46.96000 171.420
47.00000 162.016
47.04000 183.131
47.08000 160.550
47.12000 164.731
47.16000 160.329
47.20000 148.769
47.24000 155.724
47.28000 158.300
47.32000 160.425
47.36000 158.918
47.40000 156.676
47.44000 166.060
47.48000 163.553
47.52000 165.879
47.56000 166.903
47.60000 161.146
47.64000 160.012
47.68000 146.402
47.72000 159.544
47.76000 161.276
47.80000 163.225
47.84000 158.926
47.88000 148.915
47.92000 157.777
47.96000 157.227
48.00000 156.823
48.04000 158.998
48.08000 154.627
48.12000 161.196
48.16000 155.987
48.20000 158.757
48.24000 158.659
48.28000 156.642
48.32000 158.806
48.36000 164.381
48.40000 147.086
48.44000 163.966
48.48000 149.146
48.52000 150.194
48.56000 152.401
48.60000 156.652
48.64000 166.694
48.68000 145.051
48.72000 155.546
48.76000 152.194
48.80000 148.365
48.84000 155.983
48.88000 146.540
48.92000 149.077
48.96000 151.857
49.00000 148.273
49.04000 150.939
49.08000 157.803
49.12000 159.608
49.16000 152.992
49.20000 152.384
49.24000 155.972
49.28000 158.001
49.32000 160.611
49.36000 149.762
49.40000 152.346
49.44000 154.150
49.48000 154.546
49.52000 147.261
49.56000 152.034
49.60000 157.268
49.64000 150.358
49.68000 153.295
49.72000 158.980
49.76000 153.517
49.80000 158.327
49.84000 150.076
49.88000 162.430
49.92000 160.144
49.96000 157.780
50.00000 154.162
50.04000 158.663
50.08000 153.657
50.12000 157.847
50.16000 152.577
50.20000 165.620
50.24000 163.383
50.28000 171.756
50.32000 175.665
50.36000 182.219
50.40000 187.922
50.44000 188.734
50.48000 199.096
50.52000 198.256
50.56000 212.666
50.60000 209.638
50.64000 204.425
50.68000 205.334
50.72000 189.642
50.76000 192.940
50.80000 185.467
50.84000 185.373
50.88000 176.776
50.92000 170.038
50.96000 183.952
51.00000 165.023
51.04000 149.046
51.08000 156.236
51.12000 155.783
51.16000 147.570
51.20000 147.809
51.24000 148.000
51.28000 141.881
51.32000 143.055
51.36000 144.624
51.40000 145.686
51.44000 138.789
51.48000 135.718
51.52000 144.341
51.56000 157.184
51.60000 140.379
51.64000 136.361
51.68000 154.973
51.72000 149.341
51.76000 145.569
51.80000 141.910
51.84000 146.712
51.88000 147.097
51.92000 133.830
51.96000 136.733
52.00000 139.354
52.04000 139.143
52.08000 147.347
52.12000 146.791
52.16000 143.067
52.20000 162.084
52.24000 129.865
52.28000 140.674
52.32000 140.037
52.36000 142.237
52.40000 130.145
52.44000 124.234
52.48000 137.044
52.52000 130.425
52.56000 139.736
52.60000 140.183
52.64000 139.191
52.68000 142.051
52.72000 131.169
52.76000 139.124
52.80000 135.180
52.84000 138.724
52.88000 138.202
52.92000 131.440
52.96000 142.862
53.00000 148.036
53.04000 136.034
53.08000 157.552
53.12000 153.192
53.16000 146.917
53.20000 137.590
53.24000 149.506
53.28000 146.802
53.32000 163.609
53.36000 161.511
53.40000 159.898
53.44000 154.831
53.48000 152.979
53.52000 146.666
53.56000 145.856
53.60000 149.756
53.64000 139.743
53.68000 134.537
53.72000 143.088
53.76000 146.352
53.80000 129.211
53.84000 147.580
53.88000 142.406
53.92000 145.512
53.96000 128.127
54.00000 132.493
54.04000 136.401
54.08000 139.567
54.12000 141.161
54.16000 128.765
54.20000 141.851
54.24000 139.249
54.28000 123.799
54.32000 134.736
54.36000 142.998
54.40000 131.580
54.44000 134.257
54.48000 130.104
54.52000 135.596
54.56000 141.418
54.60000 142.471
54.64000 135.622
54.68000 134.604
54.72000 135.112
54.76000 142.910
54.80000 143.439
54.84000 138.877
54.88000 145.569
54.92000 142.231
54.96000 136.427
55.00000 143.138
55.04000 139.450
55.08000 143.154
55.12000 148.110
55.16000 157.933
55.20000 157.907
55.24000 157.990
55.28000 163.205
55.32000 183.723
55.36000 188.022
55.40000 205.541
55.44000 221.442
55.48000 257.643
55.52000 281.220
55.56000 328.631
55.60000 368.933
55.64000 428.739
55.68000 468.786
55.72000 537.084
55.76000 575.149
55.80000 610.302
55.84000 630.122
55.88000 637.277
55.92000 615.359
55.96000 564.965
56.00000 547.816
56.04000 486.317
56.08000 446.022
56.12000 416.491
56.16000 338.313
56.20000 278.585
56.24000 263.883
56.28000 225.737
56.32000 208.863
56.36000 191.923
56.40000 165.286
56.44000 155.073
56.48000 147.276
56.52000 146.464
56.56000 149.695
56.60000 146.899
56.64000 135.459
56.68000 128.932
56.72000 121.226
56.76000 130.332
56.80000 141.702
56.84000 139.196
56.88000 130.800
56.92000 133.920
56.96000 134.016
57.00000 117.019
57.04000 123.967
57.08000 137.012
57.12000 128.193
57.16000 130.253
57.20000 130.389
57.24000 126.988
57.28000 128.263
57.32000 122.989
57.36000 124.795
57.40000 128.322
57.44000 122.854
57.48000 113.883
57.52000 118.860
57.56000 130.418
57.60000 132.956
57.64000 122.255
57.68000 132.579
57.72000 126.883
57.76000 124.117
57.80000 125.172
57.84000 127.639
57.88000 110.885
57.92000 121.554
57.96000 129.795
58.00000 131.743
58.04000 117.857
58.08000 120.785
58.12000 117.049
58.16000 125.518
58.20000 124.663
58.24000 114.051
58.28000 123.971
58.32000 125.670
58.36000 109.114
58.40000 115.200
58.44000 109.865
58.48000 108.825
58.52000 128.305
58.56000 115.989
58.60000 116.558
58.64000 130.702
58.68000 126.664
58.72000 113.092
58.76000 109.301
58.80000 125.702
58.84000 115.122
58.88000 119.525
58.92000 117.365
58.96000 108.631
59.00000 113.243
59.04000 118.241
59.08000 120.576
59.12000 117.495
59.16000 126.433
59.20000 114.609
59.24000 119.394
59.28000 110.369
59.32000 124.974
59.36000 112.832
59.40000 115.427
59.44000 117.552
59.48000 110.886
59.52000 109.656
59.56000 120.064
59.60000 116.535
59.64000 108.912
59.68000 117.845
59.72000 124.372
59.76000 118.014
59.80000 122.426
59.84000 108.909
59.88000 123.024
59.92000 121.487
59.96000 113.113
60.00000 116.292
60.04000 112.102
60.08000 116.310
60.12000 115.966
60.16000 119.006
60.20000 119.332
60.24000 125.970
60.28000 123.034
60.32000 120.757
60.36000 110.977
60.40000 115.577
60.44000 113.173
60.48000 115.116
60.52000 123.835
60.56000 114.993
60.60000 109.324
60.64000 107.673
60.68000 119.747
60.72000 109.775
60.76000 120.201
60.80000 108.897
60.84000 109.437
60.88000 125.222
60.92000 118.234
60.96000 112.168
61.00000 115.862
61.04000 115.906
61.08000 122.039
61.12000 123.357
61.16000 128.534
61.20000 128.696
61.24000 109.561
61.28000 119.326
61.32000 130.253
61.36000 123.420
61.40000 132.793
61.44000 119.801
61.48000 139.081
61.52000 156.786
61.56000 212.450
61.60000 252.275
61.64000 290.134
61.68000 303.456
61.72000 290.958
61.76000 298.141
61.80000 231.305
61.84000 166.722
61.88000 148.297
61.92000 146.421
61.96000 145.535
62.00000 128.105
62.04000 119.178
62.08000 124.139
62.12000 119.670
62.16000 130.049
62.20000 125.209
62.24000 124.734
62.28000 134.743
62.32000 131.319
62.36000 130.487
62.40000 129.999
62.44000 126.929
62.48000 127.322
62.52000 126.647
62.56000 132.375
62.60000 132.680
62.64000 131.041
62.68000 122.301
62.72000 135.188
62.76000 128.260
62.80000 131.689
62.84000 120.552
62.88000 129.544
62.92000 133.201
62.96000 124.570
63.00000 131.698
63.04000 136.370
63.08000 124.970
63.12000 124.668
63.16000 135.416
63.20000 133.345
63.24000 139.215
63.28000 131.685
63.32000 129.474
63.36000 130.819
63.40000 131.733
63.44000 133.784
63.48000 131.156
63.52000 120.251
63.56000 140.026
63.60000 137.981
63.64000 137.399
63.68000 133.675
63.72000 136.502
63.76000 141.771
63.80000 144.833
63.84000 138.329
63.88000 136.224
63.92000 138.251
63.96000 150.444
64.00000 146.599
64.04000 137.008
64.08000 145.425
64.12000 149.986
64.16000 157.499
64.20000 148.969
64.24000 150.430
64.28000 154.654
64.32000 146.454
64.36000 162.151
64.40000 161.739
64.44000 154.902
64.48000 149.211
64.52000 158.685
64.56000 166.494
64.60000 167.980
64.64000 170.423
64.68000 169.626
64.72000 169.858
64.76000 175.776
64.80000 179.714
64.84000 183.911
64.88000 191.855
64.92000 195.727
64.96000 196.628
65.00000 199.978
65.04000 215.190
65.08000 217.957
65.12000 228.849
65.16000 243.541
65.20000 259.156
65.24000 262.783
65.28000 273.471
65.32000 301.556
65.36000 309.903
65.40000 322.381
65.44000 320.262
65.48000 361.707
65.52000 367.274
65.56000 391.267
65.60000 453.485
65.64000 505.139
65.68000 686.940
65.72000 1030.906
65.76000 1606.214
65.80000 2015.795
65.84000 2187.487
65.88000 2190.628
65.92000 2040.978
65.96000 1666.714
66.00000 1046.903
66.04000 694.563
66.08000 491.564
66.12000 414.286
66.16000 387.608
66.20000 362.911
66.24000 416.787
66.28000 477.101
66.32000 572.534
66.36000 665.723
66.40000 674.169
66.44000 642.664
66.48000 630.527
66.52000 560.508
66.56000 479.130
66.60000 419.385
66.64000 371.346
66.68000 362.485
66.72000 354.731
66.76000 364.269
66.80000 356.011
66.84000 369.164
66.88000 356.220
66.92000 372.420
66.96000 375.745
67.00000 381.080
67.04000 379.743
67.08000 392.817
67.12000 400.715
67.16000 400.058
67.20000 397.639
67.24000 401.129
67.28000 389.741
67.32000 416.070
67.36000 443.758
67.40000 426.585
67.44000 421.732
67.48000 432.902
67.52000 438.174
67.56000 425.850
67.60000 452.158
67.64000 448.009
67.68000 450.736
67.72000 465.337
67.76000 453.071
67.80000 484.157
67.84000 458.405
67.88000 498.900
67.92000 488.338
67.96000 499.104
68.00000 512.246
68.04000 521.818
68.08000 522.309
68.12000 531.457
68.16000 521.400
68.20000 565.135
68.24000 574.162
68.28000 588.504
68.32000 598.948
68.36000 621.507
68.40000 623.348
68.44000 662.225
68.48000 696.417
68.52000 715.187
68.56000 772.800
68.60000 854.856
68.64000 993.706
68.68000 1199.052
68.72000 1366.514
68.76000 1525.808
68.80000 1774.055
68.84000 1991.224
68.88000 2548.637
68.92000 3880.791
68.96000 11107.204
69.00000 24698.303
69.04000 38352.012
69.08000 45391.609
69.12000 48466.133
69.16000 51614.516
69.20000 50312.195
69.24000 39888.273
69.28000 29964.393
69.32000 24573.145
69.36000 22963.951
69.40000 18831.641
69.44000 11491.164
69.48000 5173.757
69.52000 2257.750
69.56000 1381.569
69.60000 1099.962
69.64000 898.732
69.68000 849.102
69.72000 747.030
69.76000 711.849
69.80000 620.587
69.84000 604.160
69.88000 561.796
69.92000 548.897
69.96000 550.482
70.00000 500.969