File: XRD/XRD/07-10-2025 Dep 6/XY Data/BTO_Mapping_Theta2Theta_07-10-2025_001_01_0-000_0-000.xy
20.00000 473.711
20.04000 479.921
20.08000 459.378
20.12000 483.986
20.16000 462.460
20.20000 456.061
20.24000 463.872
20.28000 460.794
20.32000 455.830
20.36000 462.992
20.40000 476.521
20.44000 480.365
20.48000 469.653
20.52000 457.318
20.56000 459.276
20.60000 452.886
20.64000 454.854
20.68000 465.184
20.72000 449.977
20.76000 458.624
20.80000 468.781
20.84000 474.347
20.88000 450.731
20.92000 447.759
20.96000 466.125
21.00000 472.732
21.04000 470.722
21.08000 464.273
21.12000 450.742
21.16000 456.536
21.20000 456.140
21.24000 457.609
21.28000 470.558
21.32000 468.990
21.36000 447.942
21.40000 459.166
21.44000 473.042
21.48000 463.107
21.52000 466.207
21.56000 468.440
21.60000 453.859
21.64000 452.670
21.68000 460.148
21.72000 459.843
21.76000 478.540
21.80000 486.125
21.84000 497.623
21.88000 486.660
21.92000 512.510
21.96000 500.695
22.00000 527.009
22.04000 513.259
22.08000 539.358
22.12000 529.744
22.16000 527.503
22.20000 510.376
22.24000 523.235
22.28000 497.236
22.32000 471.149
22.36000 474.487
22.40000 471.752
22.44000 448.613
22.48000 465.532
22.52000 458.854
22.56000 448.317
22.60000 450.303
22.64000 431.882
22.68000 444.786
22.72000 441.271
22.76000 429.506
22.80000 409.622
22.84000 430.891
22.88000 425.932
22.92000 414.322
22.96000 439.087
23.00000 429.390
23.04000 435.168
23.08000 436.364
23.12000 444.055
23.16000 430.848
23.20000 448.831
23.24000 432.296
23.28000 429.154
23.32000 416.676
23.36000 405.941
23.40000 427.575
23.44000 446.391
23.48000 431.336
23.52000 444.160
23.56000 430.382
23.60000 420.553
23.64000 430.864
23.68000 447.572
23.72000 426.519
23.76000 480.104
23.80000 459.979
23.84000 490.560
23.88000 496.149
23.92000 491.759
23.96000 481.972
24.00000 484.615
24.04000 501.863
24.08000 490.305
24.12000 464.928
24.16000 462.305
24.20000 442.100
24.24000 442.729
24.28000 435.959
24.32000 430.452
24.36000 435.382
24.40000 428.895
24.44000 411.759
24.48000 404.874
24.52000 405.792
24.56000 406.260
24.60000 421.982
24.64000 405.784
24.68000 398.359
24.72000 394.477
24.76000 401.233
24.80000 396.852
24.84000 397.144
24.88000 403.241
24.92000 393.185
24.96000 389.169
25.00000 384.698
25.04000 395.870
25.08000 402.059
25.12000 393.501
25.16000 391.739
25.20000 405.347
25.24000 406.377
25.28000 396.903
25.32000 390.244
25.36000 402.354
25.40000 375.872
25.44000 396.217
25.48000 394.823
25.52000 379.219
25.56000 385.981
25.60000 386.627
25.64000 369.216
25.68000 377.749
25.72000 403.654
25.76000 385.797
25.80000 375.704
25.84000 401.265
25.88000 387.213
25.92000 372.993
25.96000 385.151
26.00000 397.254
26.04000 385.282
26.08000 382.194
26.12000 390.458
26.16000 389.664
26.20000 376.998
26.24000 377.334
26.28000 378.589
26.32000 384.266
26.36000 365.779
26.40000 385.797
26.44000 381.665
26.48000 382.732
26.52000 377.002
26.56000 377.770
26.60000 377.083
26.64000 362.997
26.68000 362.265
26.72000 374.232
26.76000 378.924
26.80000 391.236
26.84000 366.161
26.88000 357.187
26.92000 378.608
26.96000 377.162
27.00000 383.877
27.04000 378.449
27.08000 382.228
27.12000 378.656
27.16000 380.206
27.20000 376.270
27.24000 354.320
27.28000 368.281
27.32000 350.346
27.36000 373.211
27.40000 366.760
27.44000 363.471
27.48000 385.620
27.52000 377.444
27.56000 364.667
27.60000 375.313
27.64000 375.278
27.68000 364.686
27.72000 371.261
27.76000 378.165
27.80000 390.443
27.84000 389.531
27.88000 386.707
27.92000 373.706
27.96000 365.013
28.00000 365.982
28.04000 361.938
28.08000 355.162
28.12000 363.089
28.16000 364.438
28.20000 357.564
28.24000 360.919
28.28000 362.469
28.32000 356.428
28.36000 346.790
28.40000 347.473
28.44000 354.819
28.48000 347.758
28.52000 367.167
28.56000 351.472
28.60000 357.875
28.64000 346.676
28.68000 357.832
28.72000 330.100
28.76000 345.436
28.80000 327.172
28.84000 344.063
28.88000 340.847
28.92000 359.060
28.96000 349.347
29.00000 361.505
29.04000 335.363
29.08000 340.197
29.12000 350.464
29.16000 352.663
29.20000 331.496
29.24000 364.859
29.28000 357.425
29.32000 364.883
29.36000 354.788
29.40000 353.042
29.44000 366.702
29.48000 362.647
29.52000 343.562
29.56000 334.273
29.60000 346.283
29.64000 348.689
29.68000 358.967
29.72000 350.156
29.76000 344.306
29.80000 365.188
29.84000 384.050
29.88000 382.840
29.92000 391.672
29.96000 380.749
30.00000 361.586
30.04000 369.662
30.08000 376.569
30.12000 364.229
30.16000 359.843
30.20000 364.341
30.24000 361.652
30.28000 364.298
30.32000 363.990
30.36000 346.818
30.40000 342.230
30.44000 342.186
30.48000 348.060
30.52000 350.066
30.56000 359.465
30.60000 361.533
30.64000 359.939
30.68000 369.082
30.72000 372.737
30.76000 371.875
30.80000 354.231
30.84000 369.416
30.88000 373.667
30.92000 382.606
30.96000 413.973
31.00000 445.320
31.04000 472.080
31.08000 496.017
31.12000 580.568
31.16000 677.945
31.20000 747.501
31.24000 873.800
31.28000 991.220
31.32000 1080.269
31.36000 1141.860
31.40000 1148.685
31.44000 1109.350
31.48000 991.956
31.52000 898.881
31.56000 791.628
31.60000 672.057
31.64000 594.688
31.68000 519.815
31.72000 457.220
31.76000 422.545
31.80000 391.451
31.84000 366.998
31.88000 374.490
31.92000 362.393
31.96000 359.346
32.00000 366.252
32.04000 339.614
32.08000 343.696
32.12000 342.819
32.16000 321.797
32.20000 339.872
32.24000 329.703
32.28000 331.199
32.32000 321.886
32.36000 314.535
32.40000 314.334
32.44000 322.865
32.48000 329.057
32.52000 312.513
32.56000 315.482
32.60000 302.856
32.64000 324.671
32.68000 314.020
32.72000 308.685
32.76000 319.993
32.80000 341.872
32.84000 387.960
32.88000 450.814
32.92000 511.248
32.96000 517.068
33.00000 518.696
33.04000 491.989
33.08000 402.903
33.12000 364.247
33.16000 328.759
33.20000 288.928
33.24000 296.767
33.28000 305.893
33.32000 303.029
33.36000 304.759
33.40000 285.421
33.44000 296.125
33.48000 292.869
33.52000 290.618
33.56000 281.055
33.60000 298.152
33.64000 288.947
33.68000 296.227
33.72000 301.211
33.76000 301.162
33.80000 292.920
33.84000 293.903
33.88000 306.113
33.92000 308.465
33.96000 295.040
34.00000 305.732
34.04000 311.791
34.08000 310.852
34.12000 302.490
34.16000 314.694
34.20000 320.948
34.24000 323.190
34.28000 327.822
34.32000 328.532
34.36000 325.780
34.40000 325.487
34.44000 335.001
34.48000 335.917
34.52000 323.302
34.56000 326.667
34.60000 317.337
34.64000 305.603
34.68000 307.655
34.72000 303.673
34.76000 287.971
34.80000 281.394
34.84000 259.194
34.88000 284.729
34.92000 270.737
34.96000 274.488
35.00000 265.287
35.04000 258.401
35.08000 266.547
35.12000 276.376
35.16000 276.021
35.20000 267.014
35.24000 266.876
35.28000 260.470
35.32000 270.294
35.36000 268.200
35.40000 261.813
35.44000 265.863
35.48000 250.818
35.52000 254.561
35.56000 272.049
35.60000 268.837
35.64000 254.479
35.68000 252.236
35.72000 259.500
35.76000 262.796
35.80000 256.581
35.84000 260.604
35.88000 273.637
35.92000 261.011
35.96000 258.222
36.00000 259.542
36.04000 266.888
36.08000 250.670
36.12000 260.337
36.16000 259.816
36.20000 265.377
36.24000 255.721
36.28000 259.767
36.32000 243.937
36.36000 255.599
36.40000 253.702
36.44000 249.048
36.48000 252.806
36.52000 263.138
36.56000 254.741
36.60000 246.560
36.64000 252.022
36.68000 259.919
36.72000 269.333
36.76000 248.492
36.80000 253.879
36.84000 260.505
36.88000 268.546
36.92000 270.548
36.96000 278.690
37.00000 281.294
37.04000 274.245
37.08000 271.383
37.12000 291.936
37.16000 267.101
37.20000 260.101
37.24000 257.435
37.28000 257.893
37.32000 256.625
37.36000 247.630
37.40000 245.995
37.44000 253.040
37.48000 243.951
37.52000 260.350
37.56000 232.927
37.60000 252.310
37.64000 265.200
37.68000 242.793
37.72000 248.503
37.76000 255.404
37.80000 249.434
37.84000 249.202
37.88000 247.139
37.92000 254.900
37.96000 257.206
38.00000 258.844
38.04000 256.365
38.08000 236.997
38.12000 255.073
38.16000 252.001
38.20000 258.796
38.24000 266.331
38.28000 279.918
38.32000 284.983
38.36000 301.499
38.40000 317.873
38.44000 375.042
38.48000 430.603
38.52000 504.792
38.56000 615.084
38.60000 733.607
38.64000 820.208
38.68000 935.026
38.72000 967.285
38.76000 942.918
38.80000 893.823
38.84000 811.340
38.88000 671.968
38.92000 570.898
38.96000 455.211
39.00000 388.929
39.04000 310.325
39.08000 295.797
39.12000 257.269
39.16000 247.033
39.20000 240.947
39.24000 250.319
39.28000 245.653
39.32000 253.163
39.36000 228.617
39.40000 225.317
39.44000 239.809
39.48000 231.362
39.52000 230.042
39.56000 238.674
39.60000 242.861
39.64000 217.430
39.68000 228.817
39.72000 229.676
39.76000 229.043
39.80000 231.003
39.84000 238.966
39.88000 226.558
39.92000 226.959
39.96000 228.457
40.00000 220.023
40.04000 225.423
40.08000 215.326
40.12000 216.092
40.16000 214.178
40.20000 219.366
40.24000 230.806
40.28000 215.667
40.32000 210.809
40.36000 219.032
40.40000 232.553
40.44000 222.523
40.48000 218.446
40.52000 211.662
40.56000 212.284
40.60000 201.235
40.64000 216.384
40.68000 221.190
40.72000 211.467
40.76000 217.383
40.80000 206.796
40.84000 220.244
40.88000 211.329
40.92000 213.454
40.96000 203.129
41.00000 213.115
41.04000 211.095
41.08000 204.428
41.12000 216.326
41.16000 203.630
41.20000 219.166
41.24000 203.914
41.28000 208.593
41.32000 204.715
41.36000 207.134
41.40000 204.273
41.44000 210.414
41.48000 210.089
41.52000 215.499
41.56000 210.555
41.60000 199.602
41.64000 208.175
41.68000 212.436
41.72000 214.043
41.76000 209.997
41.80000 200.522
41.84000 210.380
41.88000 208.635
41.92000 207.847
41.96000 217.722
42.00000 205.691
42.04000 209.779
42.08000 218.564
42.12000 214.380
42.16000 199.975
42.20000 207.315
42.24000 202.031
42.28000 202.136
42.32000 209.109
42.36000 212.499
42.40000 209.323
42.44000 193.156
42.48000 199.299
42.52000 216.605
42.56000 207.276
42.60000 209.067
42.64000 204.989
42.68000 196.918
42.72000 207.060
42.76000 212.543
42.80000 190.357
42.84000 209.689
42.88000 206.093
42.92000 212.567
42.96000 189.959
43.00000 195.961
43.04000 203.158
43.08000 197.945
43.12000 191.397
43.16000 198.499
43.20000 201.289
43.24000 184.327
43.28000 185.728
43.32000 196.082
43.36000 200.230
43.40000 196.856
43.44000 197.179
43.48000 191.169
43.52000 190.948
43.56000 184.447
43.60000 185.793
43.64000 202.087
43.68000 191.427
43.72000 184.223
43.76000 188.519
43.80000 195.047
43.84000 195.085
43.88000 188.470
43.92000 188.624
43.96000 194.156
44.00000 184.525
44.04000 185.853
44.08000 192.735
44.12000 189.109
44.16000 195.531
44.20000 194.361
44.24000 181.857
44.28000 202.394
44.32000 199.998
44.36000 197.303
44.40000 205.777
44.44000 195.508
44.48000 216.179
44.52000 208.629
44.56000 205.688
44.60000 204.566
44.64000 218.777
44.68000 213.893
44.72000 232.878
44.76000 220.568
44.80000 236.390
44.84000 240.597
44.88000 249.200
44.92000 237.045
44.96000 255.415
45.00000 238.253
45.04000 249.047
45.08000 253.648
45.12000 258.220
45.16000 251.053
45.20000 241.479
45.24000 240.149
45.28000 229.075
45.32000 216.674
45.36000 208.400
45.40000 215.574
45.44000 216.074
45.48000 211.300
45.52000 213.171
45.56000 203.940
45.60000 205.550
45.64000 194.879
45.68000 201.138
45.72000 191.613
45.76000 187.819
45.80000 192.227
45.84000 192.506
45.88000 190.189
45.92000 185.416
45.96000 178.036
46.00000 177.043
46.04000 180.214
46.08000 186.888
46.12000 179.974
46.16000 175.412
46.20000 177.715
46.24000 178.457
46.28000 175.156
46.32000 177.635
46.36000 179.046
46.40000 181.118
46.44000 165.950
46.48000 173.228
46.52000 176.094
46.56000 178.955
46.60000 169.205
46.64000 172.594
46.68000 171.776
46.72000 169.214
46.76000 169.683
46.80000 177.147
46.84000 168.071
46.88000 167.580
46.92000 163.819
46.96000 167.191
47.00000 171.804
47.04000 170.132
47.08000 160.800
47.12000 175.052
47.16000 163.471
47.20000 171.373
47.24000 170.846
47.28000 164.205
47.32000 159.503
47.36000 167.307
47.40000 156.664
47.44000 174.851
47.48000 167.504
47.52000 158.866
47.56000 162.221
47.60000 154.633
47.64000 155.242
47.68000 166.263
47.72000 162.240
47.76000 159.873
47.80000 150.547
47.84000 147.998
47.88000 148.497
47.92000 162.823
47.96000 150.970
48.00000 160.626
48.04000 157.557
48.08000 147.359
48.12000 148.501
48.16000 152.001
48.20000 165.548
48.24000 157.441
48.28000 158.914
48.32000 147.960
48.36000 166.100
48.40000 158.849
48.44000 160.943
48.48000 156.955
48.52000 171.037
48.56000 160.221
48.60000 151.534
48.64000 149.400
48.68000 159.211
48.72000 158.379
48.76000 158.093
48.80000 150.291
48.84000 151.766
48.88000 153.651
48.92000 159.228
48.96000 156.619
49.00000 158.037
49.04000 151.314
49.08000 159.769
49.12000 145.880
49.16000 155.204
49.20000 154.265
49.24000 151.567
49.28000 148.923
49.32000 154.701
49.36000 158.546
49.40000 158.992
49.44000 152.774
49.48000 153.309
49.52000 151.906
49.56000 145.932
49.60000 143.477
49.64000 151.455
49.68000 144.758
49.72000 152.405
49.76000 139.779
49.80000 141.580
49.84000 155.801
49.88000 157.560
49.92000 151.350
49.96000 155.516
50.00000 142.384
50.04000 145.598
50.08000 147.582
50.12000 148.841
50.16000 144.885
50.20000 150.460
50.24000 159.642
50.28000 141.265
50.32000 161.089
50.36000 163.505
50.40000 150.185
50.44000 159.981
50.48000 165.423
50.52000 161.980
50.56000 160.923
50.60000 163.242
50.64000 154.083
50.68000 155.669
50.72000 164.748
50.76000 156.788
50.80000 169.360
50.84000 161.660
50.88000 156.319
50.92000 161.544
50.96000 148.661
51.00000 152.921
51.04000 147.536
51.08000 144.855
51.12000 142.227
51.16000 148.431
51.20000 151.185
51.24000 150.014
51.28000 153.628
51.32000 147.595
51.36000 138.398
51.40000 143.211
51.44000 142.948
51.48000 135.362
51.52000 143.924
51.56000 142.112
51.60000 143.905
51.64000 142.362
51.68000 149.183
51.72000 136.736
51.76000 140.589
51.80000 128.229
51.84000 137.480
51.88000 126.924
51.92000 135.731
51.96000 132.082
52.00000 144.031
52.04000 137.415
52.08000 146.484
52.12000 142.278
52.16000 147.668
52.20000 132.168
52.24000 136.398
52.28000 133.494
52.32000 144.252
52.36000 135.996
52.40000 139.143
52.44000 141.928
52.48000 129.347
52.52000 134.743
52.56000 135.483
52.60000 140.353
52.64000 144.730
52.68000 137.104
52.72000 132.892
52.76000 136.980
52.80000 141.473
52.84000 141.936
52.88000 136.194
52.92000 135.840
52.96000 135.350
53.00000 145.757
53.04000 144.001
53.08000 132.585
53.12000 143.492
53.16000 143.490
53.20000 142.811
53.24000 144.432
53.28000 147.151
53.32000 152.097
53.36000 149.530
53.40000 152.684
53.44000 147.040
53.48000 148.222
53.52000 152.525
53.56000 146.390
53.60000 156.916
53.64000 142.353
53.68000 149.809
53.72000 140.935
53.76000 137.540
53.80000 133.657
53.84000 143.270
53.88000 135.574
53.92000 134.692
53.96000 133.162
54.00000 135.667
54.04000 137.424
54.08000 141.680
54.12000 137.914
54.16000 142.607
54.20000 139.607
54.24000 144.321
54.28000 138.944
54.32000 144.052
54.36000 139.409
54.40000 129.982
54.44000 124.213
54.48000 138.399
54.52000 136.746
54.56000 134.132
54.60000 132.009
54.64000 136.578
54.68000 143.564
54.72000 134.085
54.76000 134.558
54.80000 139.833
54.84000 142.113
54.88000 142.055
54.92000 151.870
54.96000 133.548
55.00000 149.989
55.04000 141.394
55.08000 137.330
55.12000 145.836
55.16000 145.683
55.20000 145.102
55.24000 152.380
55.28000 145.658
55.32000 157.823
55.36000 163.029
55.40000 162.527
55.44000 176.935
55.48000 187.719
55.52000 198.227
55.56000 217.468
55.60000 254.376
55.64000 283.764
55.68000 314.025
55.72000 347.193
55.76000 395.141
55.80000 448.272
55.84000 502.265
55.88000 544.809
55.92000 550.148
55.96000 591.819
56.00000 576.547
56.04000 535.178
56.08000 499.390
56.12000 440.368
56.16000 391.419
56.20000 349.138
56.24000 310.379
56.28000 273.198
56.32000 230.413
56.36000 198.924
56.40000 192.266
56.44000 183.553
56.48000 157.993
56.52000 156.698
56.56000 146.887
56.60000 137.276
56.64000 146.123
56.68000 133.137
56.72000 136.521
56.76000 133.031
56.80000 131.806
56.84000 135.997
56.88000 125.588
56.92000 127.178
56.96000 136.577
57.00000 131.870
57.04000 127.874
57.08000 138.357
57.12000 131.980
57.16000 136.088
57.20000 122.600
57.24000 131.409
57.28000 123.154
57.32000 125.100
57.36000 125.324
57.40000 121.427
57.44000 117.800
57.48000 121.619
57.52000 120.198
57.56000 121.073
57.60000 122.861
57.64000 115.600
57.68000 123.064
57.72000 122.462
57.76000 124.507
57.80000 126.240
57.84000 124.500
57.88000 113.277
57.92000 114.644
57.96000 120.666
58.00000 116.087
58.04000 129.711
58.08000 126.355
58.12000 116.365
58.16000 120.293
58.20000 114.106
58.24000 124.491
58.28000 119.723
58.32000 119.583
58.36000 115.246
58.40000 120.275
58.44000 109.974
58.48000 115.824
58.52000 118.723
58.56000 118.647
58.60000 119.094
58.64000 123.980
58.68000 112.711
58.72000 107.584
58.76000 119.466
58.80000 116.405
58.84000 113.566
58.88000 119.661
58.92000 114.872
58.96000 126.682
59.00000 113.309
59.04000 125.231
59.08000 110.027
59.12000 121.862
59.16000 109.139
59.20000 110.617
59.24000 116.061
59.28000 113.639
59.32000 108.301
59.36000 116.424
59.40000 111.881
59.44000 110.539
59.48000 126.449
59.52000 124.804
59.56000 117.048
59.60000 117.807
59.64000 112.932
59.68000 109.836
59.72000 123.897
59.76000 113.721
59.80000 113.880
59.84000 116.773
59.88000 117.854
59.92000 124.172
59.96000 118.666
60.00000 122.229
60.04000 112.523
60.08000 111.782
60.12000 114.266
60.16000 113.233
60.20000 121.072
60.24000 115.090
60.28000 109.781
60.32000 120.782
60.36000 117.369
60.40000 118.254
60.44000 111.558
60.48000 116.293
60.52000 119.993
60.56000 124.879
60.60000 124.810
60.64000 114.640
60.68000 118.581
60.72000 121.165
60.76000 113.296
60.80000 117.663
60.84000 130.047
60.88000 124.197
60.92000 115.172
60.96000 116.308
61.00000 111.075
61.04000 117.811
61.08000 108.108
61.12000 121.559
61.16000 124.289
61.20000 119.624
61.24000 116.461
61.28000 119.228
61.32000 128.635
61.36000 119.943
61.40000 126.977
61.44000 126.834
61.48000 135.095
61.52000 159.436
61.56000 209.195
61.60000 230.903
61.64000 273.460
61.68000 291.067
61.72000 287.450
61.76000 264.808
61.80000 221.544
61.84000 162.456
61.88000 136.957
61.92000 139.245
61.96000 139.889
62.00000 119.675
62.04000 126.900
62.08000 123.847
62.12000 129.115
62.16000 130.461
62.20000 127.795
62.24000 123.826
62.28000 117.353
62.32000 128.798
62.36000 127.586
62.40000 124.987
62.44000 134.182
62.48000 133.825
62.52000 135.453
62.56000 131.569
62.60000 128.939
62.64000 129.947
62.68000 133.302
62.72000 120.333
62.76000 130.688
62.80000 125.473
62.84000 130.720
62.88000 140.594
62.92000 124.268
62.96000 141.963
63.00000 137.579
63.04000 131.335
63.08000 134.167
63.12000 128.215
63.16000 129.659
63.20000 131.253
63.24000 130.599
63.28000 122.438
63.32000 125.837
63.36000 125.672
63.40000 130.429
63.44000 136.012
63.48000 133.632
63.52000 132.451
63.56000 129.965
63.60000 137.591
63.64000 125.206
63.68000 133.512
63.72000 137.303
63.76000 138.883
63.80000 143.163
63.84000 146.559
63.88000 141.511
63.92000 135.411
63.96000 139.343
64.00000 140.049
64.04000 144.470
64.08000 145.127
64.12000 138.035
64.16000 145.885
64.20000 153.065
64.24000 146.308
64.28000 143.371
64.32000 154.193
64.36000 158.194
64.40000 147.788
64.44000 142.446
64.48000 150.187
64.52000 159.345
64.56000 162.352
64.60000 153.292
64.64000 167.020
64.68000 162.441
64.72000 165.504
64.76000 167.930
64.80000 164.786
64.84000 175.171
64.88000 183.166
64.92000 184.065
64.96000 175.750
65.00000 187.452
65.04000 178.630
65.08000 194.697
65.12000 194.790
65.16000 193.623
65.20000 202.218
65.24000 208.171
65.28000 222.792
65.32000 236.597
65.36000 248.220
65.40000 259.015
65.44000 263.007
65.48000 280.925
65.52000 292.745
65.56000 320.567
65.60000 358.869
65.64000 431.353
65.68000 579.025
65.72000 911.942
65.76000 1383.600
65.80000 1738.757
65.84000 1896.053
65.88000 1954.887
65.92000 1828.844
65.96000 1467.304
66.00000 981.024
66.04000 633.274
66.08000 457.893
66.12000 384.834
66.16000 364.018
66.20000 360.987
66.24000 399.072
66.28000 428.905
66.32000 522.341
66.36000 599.113
66.40000 609.716
66.44000 628.590
66.48000 591.844
66.52000 514.210
66.56000 429.716
66.60000 392.762
66.64000 362.853
66.68000 353.015
66.72000 352.016
66.76000 349.862
66.80000 330.311
66.84000 344.430
66.88000 343.017
66.92000 356.384
66.96000 375.826
67.00000 362.121
67.04000 344.519
67.08000 376.102
67.12000 370.183
67.16000 382.876
67.20000 376.620
67.24000 385.428
67.28000 405.594
67.32000 391.361
67.36000 400.884
67.40000 398.904
67.44000 399.246
67.48000 414.112
67.52000 419.542
67.56000 420.398
67.60000 427.427
67.64000 433.094
67.68000 435.933
67.72000 440.836
67.76000 441.400
67.80000 450.211
67.84000 468.921
67.88000 475.053
67.92000 473.393
67.96000 486.159
68.00000 481.492
68.04000 523.372
68.08000 522.702
68.12000 509.660
68.16000 528.564
68.20000 545.521
68.24000 546.604
68.28000 573.257
68.32000 595.416
68.36000 597.846
68.40000 610.751
68.44000 632.978
68.48000 658.109
68.52000 697.534
68.56000 729.885
68.60000 813.964
68.64000 965.759
68.68000 1107.318
68.72000 1281.385
68.76000 1439.887
68.80000 1618.674
68.84000 1821.342
68.88000 2212.683
68.92000 3422.482
68.96000 9651.257
69.00000 21775.598
69.04000 33999.707
69.08000 40212.742
69.12000 42827.082
69.16000 45722.125
69.20000 44772.289
69.24000 35477.594
69.28000 26363.451
69.32000 21860.967
69.36000 20378.814
69.40000 16744.115
69.44000 10120.017
69.48000 4579.134
69.52000 2003.368
69.56000 1283.243
69.60000 1057.479
69.64000 871.513
69.68000 793.823
69.72000 705.691
69.76000 657.972
69.80000 632.440
69.84000 592.264
69.88000 566.982
69.92000 525.189
69.96000 513.355
70.00000 482.716