File: XRD/XRD/07-10-2025 Dep 6/XY Data/BTO_Mapping_Theta2Theta_07-10-2025_001_53_12-361_-38-042.xy
20.00000 471.111
20.04000 483.388
20.08000 476.965
20.12000 465.027
20.16000 476.628
20.20000 456.985
20.24000 487.502
20.28000 481.035
20.32000 453.318
20.36000 460.929
20.40000 462.505
20.44000 472.028
20.48000 450.306
20.52000 440.328
20.56000 455.852
20.60000 472.904
20.64000 468.515
20.68000 472.455
20.72000 465.786
20.76000 484.131
20.80000 479.681
20.84000 456.820
20.88000 463.482
20.92000 457.391
20.96000 469.285
21.00000 462.456
21.04000 453.889
21.08000 465.467
21.12000 452.806
21.16000 460.321
21.20000 476.401
21.24000 462.731
21.28000 470.111
21.32000 461.859
21.36000 459.727
21.40000 454.587
21.44000 442.086
21.48000 454.867
21.52000 455.838
21.56000 441.161
21.60000 451.669
21.64000 450.611
21.68000 470.850
21.72000 471.012
21.76000 477.449
21.80000 464.792
21.84000 482.403
21.88000 488.161
21.92000 486.847
21.96000 497.569
22.00000 515.951
22.04000 503.500
22.08000 506.059
22.12000 488.110
22.16000 488.308
22.20000 492.008
22.24000 490.620
22.28000 478.961
22.32000 486.363
22.36000 481.028
22.40000 437.750
22.44000 457.269
22.48000 459.285
22.52000 453.455
22.56000 448.087
22.60000 433.869
22.64000 445.138
22.68000 464.517
22.72000 433.915
22.76000 441.402
22.80000 435.949
22.84000 444.255
22.88000 455.880
22.92000 447.962
22.96000 445.922
23.00000 437.559
23.04000 431.715
23.08000 424.555
23.12000 425.968
23.16000 436.366
23.20000 455.346
23.24000 415.185
23.28000 430.034
23.32000 418.875
23.36000 408.548
23.40000 432.009
23.44000 419.908
23.48000 443.856
23.52000 458.877
23.56000 437.089
23.60000 436.518
23.64000 453.055
23.68000 450.319
23.72000 481.329
23.76000 464.061
23.80000 453.572
23.84000 503.418
23.88000 488.059
23.92000 505.030
23.96000 533.804
24.00000 497.233
24.04000 516.149
24.08000 495.047
24.12000 496.532
24.16000 494.160
24.20000 473.999
24.24000 465.001
24.28000 431.620
24.32000 425.683
24.36000 423.281
24.40000 449.854
24.44000 428.865
24.48000 431.985
24.52000 409.540
24.56000 412.648
24.60000 405.801
24.64000 394.892
24.68000 413.041
24.72000 420.842
24.76000 408.071
24.80000 411.543
24.84000 412.006
24.88000 412.787
24.92000 400.968
24.96000 405.645
25.00000 395.655
25.04000 412.668
25.08000 401.986
25.12000 401.667
25.16000 400.402
25.20000 395.872
25.24000 399.281
25.28000 384.241
25.32000 390.932
25.36000 396.638
25.40000 425.241
25.44000 379.188
25.48000 383.396
25.52000 399.084
25.56000 394.439
25.60000 426.847
25.64000 401.306
25.68000 388.649
25.72000 397.205
25.76000 390.041
25.80000 376.269
25.84000 398.922
25.88000 378.679
25.92000 385.046
25.96000 389.165
26.00000 399.549
26.04000 364.789
26.08000 395.050
26.12000 375.790
26.16000 402.955
26.20000 395.904
26.24000 377.016
26.28000 374.682
26.32000 382.037
26.36000 373.993
26.40000 385.177
26.44000 381.522
26.48000 377.763
26.52000 380.385
26.56000 384.566
26.60000 383.663
26.64000 394.459
26.68000 374.213
26.72000 378.468
26.76000 372.897
26.80000 376.564
26.84000 371.864
26.88000 374.018
26.92000 389.224
26.96000 387.371
27.00000 347.430
27.04000 360.562
27.08000 377.605
27.12000 379.006
27.16000 368.585
27.20000 379.764
27.24000 375.247
27.28000 372.077
27.32000 367.624
27.36000 369.603
27.40000 365.544
27.44000 382.629
27.48000 375.948
27.52000 361.718
27.56000 360.140
27.60000 357.007
27.64000 364.578
27.68000 384.855
27.72000 372.125
27.76000 373.851
27.80000 384.124
27.84000 363.229
27.88000 368.330
27.92000 364.873
27.96000 377.406
28.00000 362.475
28.04000 365.704
28.08000 346.347
28.12000 369.012
28.16000 371.021
28.20000 366.228
28.24000 356.607
28.28000 360.861
28.32000 356.962
28.36000 349.110
28.40000 355.359
28.44000 352.216
28.48000 354.713
28.52000 371.174
28.56000 355.286
28.60000 366.030
28.64000 367.507
28.68000 355.335
28.72000 343.164
28.76000 347.161
28.80000 365.644
28.84000 347.437
28.88000 360.253
28.92000 354.299
28.96000 343.616
29.00000 347.428
29.04000 339.249
29.08000 334.072
29.12000 323.885
29.16000 350.350
29.20000 351.125
29.24000 351.482
29.28000 341.969
29.32000 347.862
29.36000 353.475
29.40000 351.895
29.44000 353.474
29.48000 354.936
29.52000 360.646
29.56000 342.712
29.60000 341.844
29.64000 357.395
29.68000 350.328
29.72000 343.117
29.76000 356.842
29.80000 361.576
29.84000 376.109
29.88000 390.206
29.92000 376.365
29.96000 376.482
30.00000 385.925
30.04000 393.414
30.08000 391.829
30.12000 376.312
30.16000 375.167
30.20000 377.706
30.24000 372.018
30.28000 373.525
30.32000 372.080
30.36000 369.292
30.40000 370.305
30.44000 365.462
30.48000 354.834
30.52000 350.189
30.56000 360.590
30.60000 373.017
30.64000 372.200
30.68000 372.657
30.72000 379.684
30.76000 399.472
30.80000 383.256
30.84000 393.835
30.88000 397.663
30.92000 415.812
30.96000 428.335
31.00000 466.044
31.04000 468.546
31.08000 540.651
31.12000 589.608
31.16000 702.546
31.20000 807.352
31.24000 937.816
31.28000 1064.340
31.32000 1184.270
31.36000 1201.160
31.40000 1226.060
31.44000 1206.148
31.48000 1105.732
31.52000 988.515
31.56000 856.463
31.60000 749.889
31.64000 651.677
31.68000 554.527
31.72000 480.315
31.76000 446.940
31.80000 421.037
31.84000 389.344
31.88000 399.835
31.92000 378.064
31.96000 349.171
32.00000 360.707
32.04000 350.873
32.08000 342.073
32.12000 344.482
32.16000 337.499
32.20000 340.708
32.24000 353.566
32.28000 330.730
32.32000 342.989
32.36000 312.384
32.40000 342.530
32.44000 329.156
32.48000 333.708
32.52000 324.929
32.56000 315.694
32.60000 319.336
32.64000 329.030
32.68000 325.829
32.72000 315.727
32.76000 309.224
32.80000 347.467
32.84000 390.647
32.88000 444.371
32.92000 478.952
32.96000 518.454
33.00000 545.574
33.04000 508.508
33.08000 443.529
33.12000 383.268
33.16000 340.026
33.20000 311.311
33.24000 307.468
33.28000 284.976
33.32000 286.811
33.36000 308.865
33.40000 275.504
33.44000 297.203
33.48000 306.236
33.52000 306.389
33.56000 298.804
33.60000 292.603
33.64000 289.132
33.68000 286.619
33.72000 282.338
33.76000 277.887
33.80000 293.352
33.84000 299.092
33.88000 305.671
33.92000 301.260
33.96000 318.655
34.00000 300.768
34.04000 303.051
34.08000 322.709
34.12000 321.875
34.16000 308.954
34.20000 314.481
34.24000 312.051
34.28000 320.340
34.32000 338.269
34.36000 335.650
34.40000 326.173
34.44000 323.774
34.48000 314.915
34.52000 312.850
34.56000 306.715
34.60000 296.014
34.64000 293.474
34.68000 312.579
34.72000 295.163
34.76000 292.197
34.80000 286.970
34.84000 274.329
34.88000 282.961
34.92000 287.527
34.96000 282.843
35.00000 263.336
35.04000 258.161
35.08000 273.292
35.12000 272.423
35.16000 269.626
35.20000 258.846
35.24000 256.569
35.28000 268.346
35.32000 262.900
35.36000 267.416
35.40000 260.982
35.44000 270.107
35.48000 263.606
35.52000 253.596
35.56000 254.008
35.60000 260.203
35.64000 255.486
35.68000 254.798
35.72000 255.557
35.76000 261.394
35.80000 265.449
35.84000 249.749
35.88000 264.737
35.92000 279.534
35.96000 258.923
36.00000 263.294
36.04000 258.321
36.08000 269.402
36.12000 258.183
36.16000 260.959
36.20000 241.337
36.24000 263.096
36.28000 247.048
36.32000 258.586
36.36000 267.901
36.40000 264.065
36.44000 252.616
36.48000 248.736
36.52000 259.615
36.56000 263.061
36.60000 261.354
36.64000 254.776
36.68000 254.982
36.72000 258.849
36.76000 256.309
36.80000 257.631
36.84000 264.396
36.88000 269.227
36.92000 275.426
36.96000 264.211
37.00000 279.937
37.04000 264.722
37.08000 281.197
37.12000 279.003
37.16000 266.324
37.20000 260.806
37.24000 261.382
37.28000 266.708
37.32000 245.317
37.36000 244.668
37.40000 256.277
37.44000 256.485
37.48000 243.190
37.52000 248.672
37.56000 254.221
37.60000 244.395
37.64000 258.091
37.68000 252.717
37.72000 257.551
37.76000 247.939
37.80000 256.456
37.84000 253.386
37.88000 242.006
37.92000 253.897
37.96000 241.242
38.00000 261.321
38.04000 251.494
38.08000 261.324
38.12000 257.005
38.16000 248.935
38.20000 262.028
38.24000 255.682
38.28000 272.266
38.32000 292.837
38.36000 300.802
38.40000 329.887
38.44000 356.300
38.48000 408.231
38.52000 486.326
38.56000 561.224
38.60000 667.235
38.64000 771.706
38.68000 871.017
38.72000 860.414
38.76000 882.989
38.80000 846.207
38.84000 726.500
38.88000 641.640
38.92000 527.013
38.96000 426.706
39.00000 356.052
39.04000 301.739
39.08000 275.917
39.12000 281.620
39.16000 251.420
39.20000 250.687
39.24000 240.693
39.28000 235.899
39.32000 239.031
39.36000 243.473
39.40000 254.905
39.44000 247.742
39.48000 235.522
39.52000 228.254
39.56000 249.384
39.60000 236.675
39.64000 242.444
39.68000 226.726
39.72000 240.619
39.76000 232.206
39.80000 227.103
39.84000 226.248
39.88000 228.069
39.92000 224.031
39.96000 228.318
40.00000 229.143
40.04000 235.173
40.08000 236.641
40.12000 223.829
40.16000 221.044
40.20000 219.592
40.24000 228.113
40.28000 224.418
40.32000 218.680
40.36000 224.350
40.40000 224.843
40.44000 210.743
40.48000 215.101
40.52000 218.672
40.56000 218.075
40.60000 220.824
40.64000 217.759
40.68000 215.060
40.72000 209.699
40.76000 218.011
40.80000 210.016
40.84000 221.730
40.88000 213.506
40.92000 204.656
40.96000 215.663
41.00000 221.134
41.04000 216.190
41.08000 198.265
41.12000 200.476
41.16000 215.431
41.20000 200.297
41.24000 217.274
41.28000 204.538
41.32000 210.712
41.36000 208.059
41.40000 203.061
41.44000 203.333
41.48000 214.076
41.52000 188.981
41.56000 207.891
41.60000 199.780
41.64000 201.650
41.68000 215.097
41.72000 196.884
41.76000 205.009
41.80000 200.052
41.84000 214.090
41.88000 222.704
41.92000 209.804
41.96000 206.740
42.00000 229.531
42.04000 201.096
42.08000 222.039
42.12000 216.198
42.16000 208.830
42.20000 214.030
42.24000 199.568
42.28000 222.843
42.32000 208.007
42.36000 204.453
42.40000 211.201
42.44000 207.006
42.48000 205.873
42.52000 223.204
42.56000 216.644
42.60000 209.487
42.64000 193.063
42.68000 200.595
42.72000 212.132
42.76000 209.330
42.80000 215.566
42.84000 185.971
42.88000 204.566
42.92000 204.154
42.96000 189.662
43.00000 206.642
43.04000 189.251
43.08000 194.964
43.12000 206.840
43.16000 201.324
43.20000 195.727
43.24000 202.010
43.28000 186.143
43.32000 201.224
43.36000 189.710
43.40000 191.823
43.44000 183.345
43.48000 195.858
43.52000 197.072
43.56000 193.422
43.60000 195.740
43.64000 196.452
43.68000 191.341
43.72000 185.478
43.76000 189.563
43.80000 196.478
43.84000 185.819
43.88000 193.522
43.92000 195.287
43.96000 193.200
44.00000 202.834
44.04000 195.871
44.08000 193.487
44.12000 201.614
44.16000 197.433
44.20000 199.254
44.24000 185.307
44.28000 191.539
44.32000 190.448
44.36000 200.305
44.40000 205.410
44.44000 193.190
44.48000 192.029
44.52000 194.609
44.56000 197.270
44.60000 225.923
44.64000 227.990
44.68000 217.743
44.72000 206.400
44.76000 209.984
44.80000 216.711
44.84000 218.968
44.88000 221.126
44.92000 219.659
44.96000 219.875
45.00000 236.123
45.04000 217.556
45.08000 232.380
45.12000 238.618
45.16000 232.202
45.20000 233.073
45.24000 220.724
45.28000 210.707
45.32000 209.931
45.36000 229.373
45.40000 218.945
45.44000 212.880
45.48000 202.210
45.52000 207.515
45.56000 208.624
45.60000 205.947
45.64000 189.295
45.68000 192.324
45.72000 189.417
45.76000 184.924
45.80000 184.077
45.84000 194.788
45.88000 186.788
45.92000 182.478
45.96000 177.344
46.00000 165.488
46.04000 172.346
46.08000 173.904
46.12000 180.883
46.16000 157.051
46.20000 173.914
46.24000 164.249
46.28000 183.677
46.32000 173.107
46.36000 166.717
46.40000 184.070
46.44000 176.554
46.48000 169.046
46.52000 169.140
46.56000 181.257
46.60000 184.334
46.64000 178.408
46.68000 181.534
46.72000 162.986
46.76000 174.797
46.80000 176.058
46.84000 169.755
46.88000 175.263
46.92000 176.461
46.96000 169.290
47.00000 161.355
47.04000 172.061
47.08000 174.146
47.12000 171.391
47.16000 179.245
47.20000 170.309
47.24000 163.725
47.28000 161.862
47.32000 159.567
47.36000 158.811
47.40000 166.087
47.44000 157.916
47.48000 162.903
47.52000 171.864
47.56000 173.119
47.60000 163.859
47.64000 160.774
47.68000 159.328
47.72000 160.357
47.76000 156.367
47.80000 164.470
47.84000 161.743
47.88000 149.356
47.92000 167.187
47.96000 155.211
48.00000 165.439
48.04000 159.715
48.08000 166.735
48.12000 161.001
48.16000 149.282
48.20000 163.813
48.24000 165.852
48.28000 162.220
48.32000 154.627
48.36000 162.300
48.40000 144.096
48.44000 155.674
48.48000 154.326
48.52000 155.668
48.56000 166.049
48.60000 154.529
48.64000 149.848
48.68000 146.942
48.72000 158.504
48.76000 164.019
48.80000 158.078
48.84000 152.704
48.88000 171.298
48.92000 154.925
48.96000 154.560
49.00000 149.887
49.04000 148.381
49.08000 155.259
49.12000 164.972
49.16000 165.273
49.20000 144.905
49.24000 153.771
49.28000 156.998
49.32000 155.288
49.36000 149.136
49.40000 150.191
49.44000 143.738
49.48000 152.439
49.52000 154.270
49.56000 151.255
49.60000 143.926
49.64000 153.344
49.68000 146.703
49.72000 164.879
49.76000 151.016
49.80000 153.198
49.84000 150.271
49.88000 138.531
49.92000 153.620
49.96000 152.792
50.00000 145.329
50.04000 146.792
50.08000 159.788
50.12000 156.654
50.16000 154.943
50.20000 141.464
50.24000 143.823
50.28000 163.024
50.32000 153.005
50.36000 153.460
50.40000 150.481
50.44000 164.986
50.48000 158.040
50.52000 162.543
50.56000 158.424
50.60000 160.929
50.64000 172.347
50.68000 161.778
50.72000 156.020
50.76000 163.235
50.80000 149.859
50.84000 161.125
50.88000 160.645
50.92000 159.415
50.96000 164.332
51.00000 148.086
51.04000 151.740
51.08000 155.711
51.12000 137.616
51.16000 152.159
51.20000 148.899
51.24000 137.699
51.28000 143.590
51.32000 148.343
51.36000 137.247
51.40000 141.546
51.44000 151.408
51.48000 156.524
51.52000 136.180
51.56000 146.579
51.60000 131.685
51.64000 144.726
51.68000 150.558
51.72000 142.447
51.76000 147.585
51.80000 145.424
51.84000 141.251
51.88000 149.238
51.92000 139.437
51.96000 142.738
52.00000 142.150
52.04000 150.095
52.08000 152.396
52.12000 130.872
52.16000 136.692
52.20000 132.672
52.24000 141.929
52.28000 150.896
52.32000 139.272
52.36000 136.256
52.40000 144.763
52.44000 140.312
52.48000 145.921
52.52000 135.541
52.56000 143.499
52.60000 145.310
52.64000 139.417
52.68000 137.971
52.72000 151.434
52.76000 144.375
52.80000 147.427
52.84000 149.727
52.88000 156.066
52.92000 135.353
52.96000 134.430
53.00000 143.304
53.04000 145.984
53.08000 136.628
53.12000 151.345
53.16000 135.446
53.20000 148.836
53.24000 140.265
53.28000 151.101
53.32000 146.443
53.36000 158.313
53.40000 157.493
53.44000 153.099
53.48000 152.305
53.52000 151.602
53.56000 154.996
53.60000 146.865
53.64000 137.428
53.68000 137.024
53.72000 142.259
53.76000 145.871
53.80000 143.633
53.84000 130.223
53.88000 138.453
53.92000 136.518
53.96000 124.947
54.00000 144.262
54.04000 145.980
54.08000 132.434
54.12000 139.425
54.16000 133.365
54.20000 136.081
54.24000 138.309
54.28000 137.166
54.32000 139.488
54.36000 133.860
54.40000 137.343
54.44000 135.039
54.48000 126.219
54.52000 137.854
54.56000 135.674
54.60000 139.376
54.64000 146.738
54.68000 138.448
54.72000 133.020
54.76000 138.995
54.80000 148.250
54.84000 135.404
54.88000 132.391
54.92000 149.300
54.96000 135.421
55.00000 140.530
55.04000 153.629
55.08000 145.380
55.12000 151.463
55.16000 139.067
55.20000 144.696
55.24000 151.738
55.28000 156.024
55.32000 159.150
55.36000 163.448
55.40000 161.550
55.44000 178.056
55.48000 196.564
55.52000 200.520
55.56000 209.523
55.60000 231.260
55.64000 247.336
55.68000 285.425
55.72000 326.458
55.76000 346.978
55.80000 394.312
55.84000 431.974
55.88000 460.634
55.92000 462.656
55.96000 488.013
56.00000 470.459
56.04000 464.155
56.08000 430.439
56.12000 389.599
56.16000 342.405
56.20000 307.467
56.24000 292.421
56.28000 246.482
56.32000 230.100
56.36000 190.092
56.40000 185.663
56.44000 167.029
56.48000 159.633
56.52000 156.704
56.56000 154.224
56.60000 145.420
56.64000 143.762
56.68000 144.261
56.72000 135.426
56.76000 137.177
56.80000 134.965
56.84000 130.598
56.88000 145.211
56.92000 134.754
56.96000 135.663
57.00000 119.491
57.04000 138.468
57.08000 125.043
57.12000 128.435
57.16000 128.877
57.20000 136.811
57.24000 127.938
57.28000 130.846
57.32000 134.689
57.36000 116.660
57.40000 134.482
57.44000 129.641
57.48000 120.554
57.52000 127.489
57.56000 135.485
57.60000 129.014
57.64000 127.177
57.68000 118.688
57.72000 131.506
57.76000 122.869
57.80000 140.821
57.84000 126.208
57.88000 124.644
57.92000 126.641
57.96000 133.363
58.00000 132.020
58.04000 123.722
58.08000 118.605
58.12000 122.608
58.16000 126.779
58.20000 120.932
58.24000 126.619
58.28000 113.041
58.32000 110.463
58.36000 114.108
58.40000 117.996
58.44000 120.053
58.48000 121.929
58.52000 113.671
58.56000 118.666
58.60000 119.109
58.64000 124.453
58.68000 120.343
58.72000 120.663
58.76000 132.716
58.80000 127.602
58.84000 127.772
58.88000 116.992
58.92000 113.807
58.96000 120.502
59.00000 114.213
59.04000 113.789
59.08000 111.477
59.12000 123.158
59.16000 122.771
59.20000 116.277
59.24000 117.155
59.28000 118.749
59.32000 120.269
59.36000 120.675
59.40000 110.935
59.44000 112.924
59.48000 117.060
59.52000 118.975
59.56000 118.088
59.60000 116.038
59.64000 118.597
59.68000 117.986
59.72000 123.906
59.76000 121.317
59.80000 113.107
59.84000 115.043
59.88000 110.358
59.92000 114.191
59.96000 110.709
60.00000 115.077
60.04000 125.390
60.08000 120.756
60.12000 114.260
60.16000 114.274
60.20000 108.843
60.24000 117.980
60.28000 111.864
60.32000 111.777
60.36000 113.690
60.40000 114.101
60.44000 117.811
60.48000 115.250
60.52000 118.724
60.56000 116.254
60.60000 105.421
60.64000 118.090
60.68000 113.740
60.72000 110.936
60.76000 121.838
60.80000 122.343
60.84000 114.298
60.88000 120.516
60.92000 118.776
60.96000 120.406
61.00000 124.020
61.04000 123.974
61.08000 121.694
61.12000 118.876
61.16000 120.292
61.20000 115.427
61.24000 132.155
61.28000 111.982
61.32000 122.172
61.36000 122.300
61.40000 129.383
61.44000 129.215
61.48000 130.959
61.52000 154.894
61.56000 197.310
61.60000 232.423
61.64000 278.441
61.68000 293.097
61.72000 291.459
61.76000 280.875
61.80000 214.889
61.84000 164.311
61.88000 151.308
61.92000 139.749
61.96000 139.818
62.00000 129.566
62.04000 132.285
62.08000 138.963
62.12000 120.568
62.16000 118.264
62.20000 131.540
62.24000 134.660
62.28000 126.016
62.32000 121.461
62.36000 118.889
62.40000 131.847
62.44000 133.166
62.48000 137.891
62.52000 118.420
62.56000 116.398
62.60000 137.349
62.64000 130.960
62.68000 123.445
62.72000 134.101
62.76000 129.471
62.80000 131.876
62.84000 127.636
62.88000 122.194
62.92000 137.748
62.96000 130.201
63.00000 128.134
63.04000 126.907
63.08000 138.351
63.12000 139.312
63.16000 137.076
63.20000 140.760
63.24000 130.501
63.28000 127.339
63.32000 137.412
63.36000 139.940
63.40000 131.052
63.44000 133.946
63.48000 131.132
63.52000 149.459
63.56000 143.318
63.60000 144.472
63.64000 127.370
63.68000 144.880
63.72000 138.742
63.76000 134.923
63.80000 146.301
63.84000 142.941
63.88000 145.711
63.92000 152.966
63.96000 135.916
64.00000 146.173
64.04000 149.968
64.08000 148.963
64.12000 146.137
64.16000 146.934
64.20000 153.017
64.24000 170.654
64.28000 155.262
64.32000 148.581
64.36000 159.353
64.40000 156.136
64.44000 166.313
64.48000 160.159
64.52000 159.785
64.56000 149.187
64.60000 169.049
64.64000 169.223
64.68000 166.535
64.72000 160.092
64.76000 161.652
64.80000 177.385
64.84000 173.707
64.88000 177.927
64.92000 188.464
64.96000 196.242
65.00000 188.555
65.04000 199.369
65.08000 194.794
65.12000 203.214
65.16000 201.505
65.20000 223.700
65.24000 224.357
65.28000 216.201
65.32000 243.004
65.36000 257.847
65.40000 248.668
65.44000 265.630
65.48000 289.228
65.52000 288.356
65.56000 323.849
65.60000 353.981
65.64000 403.897
65.68000 567.716
65.72000 856.142
65.76000 1348.520
65.80000 1737.264
65.84000 1913.483
65.88000 1994.635
65.92000 1855.439
65.96000 1552.988
66.00000 1009.398
66.04000 669.352
66.08000 471.350
66.12000 393.572
66.16000 360.967
66.20000 359.794
66.24000 385.987
66.28000 460.815
66.32000 517.185
66.36000 593.095
66.40000 631.591
66.44000 630.478
66.48000 607.999
66.52000 515.295
66.56000 452.895
66.60000 380.863
66.64000 358.949
66.68000 349.091
66.72000 331.113
66.76000 331.767
66.80000 344.615
66.84000 331.031
66.88000 362.039
66.92000 356.045
66.96000 366.664
67.00000 365.106
67.04000 358.440
67.08000 387.369
67.12000 381.447
67.16000 369.652
67.20000 398.129
67.24000 388.027
67.28000 393.874
67.32000 388.651
67.36000 382.702
67.40000 402.350
67.44000 404.049
67.48000 410.438
67.52000 418.052
67.56000 435.714
67.60000 430.622
67.64000 440.641
67.68000 460.255
67.72000 462.147
67.76000 468.164
67.80000 465.355
67.84000 465.288
67.88000 470.166
67.92000 469.242
67.96000 485.227
68.00000 483.969
68.04000 492.457
68.08000 500.999
68.12000 523.491
68.16000 517.529
68.20000 548.993
68.24000 570.449
68.28000 575.866
68.32000 583.550
68.36000 590.547
68.40000 603.194
68.44000 630.646
68.48000 646.823
68.52000 687.486
68.56000 757.434
68.60000 844.561
68.64000 945.773
68.68000 1107.922
68.72000 1252.079
68.76000 1427.112
68.80000 1617.305
68.84000 1811.235
68.88000 2170.825
68.92000 3155.307
68.96000 8529.522
69.00000 19990.350
69.04000 32615.164
69.08000 39821.941
69.12000 42567.813
69.16000 45367.672
69.20000 45484.145
69.24000 36797.391
69.28000 27145.404
69.32000 21900.102
69.36000 20518.111
69.40000 17314.422
69.44000 11008.624
69.48000 5036.672
69.52000 2194.492
69.56000 1349.121
69.60000 1062.229
69.64000 890.867
69.68000 799.141
69.72000 730.065
69.76000 667.180
69.80000 636.326
69.84000 597.642
69.88000 553.231
69.92000 543.291
69.96000 500.085
70.00000 504.498