File: XRD/XRD/07-10-2025 Dep 6/XY Data/BTO_Mapping_Theta2Theta_07-10-2025_001_12_20-074_22-294.xy
20.00000 480.650
20.04000 486.180
20.08000 480.426
20.12000 468.379
20.16000 485.058
20.20000 480.656
20.24000 484.891
20.28000 469.475
20.32000 462.578
20.36000 472.591
20.40000 484.253
20.44000 460.523
20.48000 464.052
20.52000 461.524
20.56000 462.531
20.60000 453.305
20.64000 473.587
20.68000 477.981
20.72000 478.892
20.76000 451.841
20.80000 461.235
20.84000 458.173
20.88000 462.580
20.92000 477.221
20.96000 461.901
21.00000 462.834
21.04000 460.462
21.08000 460.682
21.12000 463.011
21.16000 437.353
21.20000 466.670
21.24000 461.746
21.28000 460.717
21.32000 474.145
21.36000 466.651
21.40000 457.986
21.44000 459.582
21.48000 445.096
21.52000 474.751
21.56000 459.645
21.60000 459.630
21.64000 475.750
21.68000 464.072
21.72000 456.514
21.76000 485.673
21.80000 463.109
21.84000 480.530
21.88000 483.079
21.92000 493.618
21.96000 503.894
22.00000 487.048
22.04000 498.311
22.08000 483.250
22.12000 504.462
22.16000 484.576
22.20000 480.345
22.24000 480.799
22.28000 464.365
22.32000 451.109
22.36000 465.561
22.40000 482.982
22.44000 453.295
22.48000 458.069
22.52000 428.381
22.56000 455.591
22.60000 433.880
22.64000 443.369
22.68000 458.948
22.72000 445.122
22.76000 442.257
22.80000 426.610
22.84000 452.542
22.88000 428.374
22.92000 457.614
22.96000 445.806
23.00000 447.976
23.04000 430.907
23.08000 416.012
23.12000 439.986
23.16000 427.521
23.20000 428.682
23.24000 446.722
23.28000 428.534
23.32000 434.325
23.36000 438.879
23.40000 451.049
23.44000 428.476
23.48000 440.097
23.52000 419.942
23.56000 447.824
23.60000 439.233
23.64000 449.619
23.68000 454.372
23.72000 447.695
23.76000 450.761
23.80000 454.823
23.84000 473.460
23.88000 486.689
23.92000 499.163
23.96000 500.381
24.00000 500.399
24.04000 497.573
24.08000 499.525
24.12000 504.221
24.16000 477.007
24.20000 460.503
24.24000 466.877
24.28000 449.515
24.32000 447.087
24.36000 430.044
24.40000 418.839
24.44000 412.690
24.48000 417.933
24.52000 414.836
24.56000 424.106
24.60000 425.861
24.64000 422.758
24.68000 399.423
24.72000 399.771
24.76000 408.374
24.80000 412.066
24.84000 395.197
24.88000 399.294
24.92000 399.461
24.96000 427.704
25.00000 404.586
25.04000 399.900
25.08000 414.774
25.12000 392.667
25.16000 407.916
25.20000 398.087
25.24000 410.070
25.28000 401.989
25.32000 396.674
25.36000 399.684
25.40000 393.219
25.44000 404.196
25.48000 390.711
25.52000 392.509
25.56000 400.880
25.60000 392.986
25.64000 400.712
25.68000 403.476
25.72000 391.238
25.76000 401.291
25.80000 378.098
25.84000 368.645
25.88000 367.713
25.92000 369.988
25.96000 393.745
26.00000 382.067
26.04000 391.801
26.08000 397.299
26.12000 414.687
26.16000 377.930
26.20000 392.241
26.24000 384.349
26.28000 377.655
26.32000 407.533
26.36000 371.475
26.40000 394.980
26.44000 389.112
26.48000 374.343
26.52000 384.043
26.56000 356.273
26.60000 370.289
26.64000 380.769
26.68000 363.962
26.72000 386.001
26.76000 388.898
26.80000 399.539
26.84000 386.545
26.88000 373.689
26.92000 387.269
26.96000 390.501
27.00000 388.210
27.04000 382.399
27.08000 386.021
27.12000 360.471
27.16000 383.919
27.20000 379.395
27.24000 371.764
27.28000 381.527
27.32000 376.957
27.36000 359.718
27.40000 385.630
27.44000 367.263
27.48000 374.811
27.52000 377.271
27.56000 394.860
27.60000 379.616
27.64000 383.425
27.68000 370.798
27.72000 375.436
27.76000 387.712
27.80000 358.733
27.84000 369.104
27.88000 363.446
27.92000 364.725
27.96000 369.198
28.00000 368.372
28.04000 376.366
28.08000 360.868
28.12000 356.612
28.16000 365.530
28.20000 364.261
28.24000 378.352
28.28000 377.646
28.32000 351.215
28.36000 364.341
28.40000 348.736
28.44000 352.993
28.48000 364.259
28.52000 371.871
28.56000 357.438
28.60000 351.044
28.64000 359.451
28.68000 357.387
28.72000 355.177
28.76000 359.698
28.80000 366.012
28.84000 364.610
28.88000 367.448
28.92000 362.077
28.96000 355.612
29.00000 366.829
29.04000 363.772
29.08000 364.401
29.12000 354.973
29.16000 378.530
29.20000 344.801
29.24000 341.532
29.28000 371.293
29.32000 360.964
29.36000 355.544
29.40000 349.485
29.44000 369.086
29.48000 376.609
29.52000 359.567
29.56000 351.219
29.60000 356.619
29.64000 342.613
29.68000 346.281
29.72000 352.222
29.76000 351.602
29.80000 369.692
29.84000 363.923
29.88000 378.712
29.92000 380.598
29.96000 378.336
30.00000 379.594
30.04000 372.048
30.08000 349.020
30.12000 350.022
30.16000 368.783
30.20000 371.432
30.24000 356.494
30.28000 397.943
30.32000 367.240
30.36000 371.600
30.40000 375.219
30.44000 348.897
30.48000 355.355
30.52000 376.932
30.56000 367.443
30.60000 371.946
30.64000 376.264
30.68000 374.475
30.72000 376.279
30.76000 375.981
30.80000 397.941
30.84000 392.252
30.88000 392.575
30.92000 404.493
30.96000 421.919
31.00000 453.554
31.04000 476.569
31.08000 508.366
31.12000 575.897
31.16000 616.437
31.20000 684.665
31.24000 763.585
31.28000 851.611
31.32000 913.760
31.36000 947.298
31.40000 959.983
31.44000 911.442
31.48000 839.655
31.52000 784.918
31.56000 715.270
31.60000 638.679
31.64000 570.362
31.68000 515.052
31.72000 469.467
31.76000 436.015
31.80000 431.995
31.84000 389.560
31.88000 400.146
31.92000 400.792
31.96000 380.592
32.00000 384.324
32.04000 368.731
32.08000 361.307
32.12000 351.585
32.16000 339.134
32.20000 350.401
32.24000 347.290
32.28000 337.883
32.32000 351.220
32.36000 336.890
32.40000 346.298
32.44000 335.389
32.48000 333.259
32.52000 310.155
32.56000 327.667
32.60000 323.892
32.64000 323.992
32.68000 311.064
32.72000 326.332
32.76000 333.321
32.80000 336.299
32.84000 412.108
32.88000 472.912
32.92000 496.543
32.96000 563.775
33.00000 560.132
33.04000 525.216
33.08000 470.362
33.12000 390.889
33.16000 359.384
33.20000 330.620
33.24000 309.498
33.28000 295.488
33.32000 306.573
33.36000 294.448
33.40000 280.851
33.44000 291.529
33.48000 300.497
33.52000 287.154
33.56000 295.659
33.60000 293.584
33.64000 297.013
33.68000 279.182
33.72000 275.923
33.76000 286.542
33.80000 286.273
33.84000 303.652
33.88000 288.715
33.92000 317.877
33.96000 304.047
34.00000 312.405
34.04000 313.848
34.08000 307.099
34.12000 307.167
34.16000 314.557
34.20000 318.024
34.24000 309.368
34.28000 323.800
34.32000 305.501
34.36000 316.351
34.40000 316.701
34.44000 299.475
34.48000 320.511
34.52000 299.314
34.56000 303.745
34.60000 288.595
34.64000 276.262
34.68000 289.780
34.72000 291.747
34.76000 271.644
34.80000 281.889
34.84000 281.711
34.88000 277.105
34.92000 275.589
34.96000 272.481
35.00000 276.545
35.04000 269.247
35.08000 274.401
35.12000 273.864
35.16000 265.144
35.20000 266.575
35.24000 256.363
35.28000 271.930
35.32000 264.926
35.36000 264.956
35.40000 271.435
35.44000 260.270
35.48000 263.603
35.52000 271.928
35.56000 275.709
35.60000 266.522
35.64000 256.606
35.68000 263.529
35.72000 265.507
35.76000 266.037
35.80000 257.744
35.84000 250.488
35.88000 266.492
35.92000 255.221
35.96000 268.178
36.00000 261.895
36.04000 244.281
36.08000 252.519
36.12000 252.126
36.16000 267.277
36.20000 276.720
36.24000 258.948
36.28000 253.489
36.32000 257.686
36.36000 249.288
36.40000 260.580
36.44000 261.895
36.48000 253.506
36.52000 257.082
36.56000 262.513
36.60000 240.886
36.64000 251.584
36.68000 268.657
36.72000 265.043
36.76000 265.523
36.80000 275.633
36.84000 251.748
36.88000 264.617
36.92000 259.423
36.96000 266.465
37.00000 274.602
37.04000 253.060
37.08000 273.050
37.12000 263.257
37.16000 253.951
37.20000 260.523
37.24000 255.692
37.28000 242.345
37.32000 247.442
37.36000 251.620
37.40000 242.409
37.44000 243.720
37.48000 256.977
37.52000 240.268
37.56000 252.840
37.60000 257.060
37.64000 244.236
37.68000 246.866
37.72000 243.165
37.76000 234.151
37.80000 248.859
37.84000 258.366
37.88000 251.204
37.92000 244.100
37.96000 251.014
38.00000 253.908
38.04000 267.114
38.08000 249.565
38.12000 260.889
38.16000 260.311
38.20000 259.069
38.24000 276.952
38.28000 261.529
38.32000 268.490
38.36000 277.762
38.40000 301.946
38.44000 324.127
38.48000 358.679
38.52000 414.119
38.56000 460.211
38.60000 540.526
38.64000 559.674
38.68000 596.376
38.72000 617.103
38.76000 603.529
38.80000 577.226
38.84000 483.989
38.88000 409.668
38.92000 376.724
38.96000 336.532
39.00000 293.636
39.04000 280.065
39.08000 262.945
39.12000 253.876
39.16000 257.249
39.20000 227.587
39.24000 247.312
39.28000 241.311
39.32000 243.048
39.36000 241.499
39.40000 254.419
39.44000 242.747
39.48000 237.639
39.52000 237.728
39.56000 238.072
39.60000 237.846
39.64000 240.900
39.68000 234.348
39.72000 228.055
39.76000 222.926
39.80000 221.505
39.84000 222.009
39.88000 230.332
39.92000 221.386
39.96000 227.291
40.00000 216.917
40.04000 215.286
40.08000 220.644
40.12000 235.280
40.16000 236.217
40.20000 209.757
40.24000 223.361
40.28000 213.088
40.32000 221.489
40.36000 228.584
40.40000 227.783
40.44000 217.581
40.48000 217.793
40.52000 220.749
40.56000 218.709
40.60000 215.805
40.64000 207.061
40.68000 210.893
40.72000 216.385
40.76000 201.539
40.80000 211.761
40.84000 210.894
40.88000 213.177
40.92000 216.419
40.96000 208.098
41.00000 208.254
41.04000 211.437
41.08000 213.297
41.12000 218.957
41.16000 207.771
41.20000 213.723
41.24000 204.309
41.28000 206.908
41.32000 215.803
41.36000 209.148
41.40000 207.394
41.44000 206.736
41.48000 206.384
41.52000 196.430
41.56000 208.422
41.60000 205.618
41.64000 210.187
41.68000 206.369
41.72000 189.183
41.76000 208.611
41.80000 199.470
41.84000 212.753
41.88000 201.960
41.92000 212.280
41.96000 204.166
42.00000 215.281
42.04000 210.775
42.08000 207.441
42.12000 214.277
42.16000 217.935
42.20000 218.175
42.24000 219.289
42.28000 215.780
42.32000 207.828
42.36000 213.681
42.40000 212.765
42.44000 214.515
42.48000 206.812
42.52000 209.917
42.56000 196.921
42.60000 199.157
42.64000 203.180
42.68000 218.448
42.72000 212.489
42.76000 209.274
42.80000 196.738
42.84000 213.165
42.88000 194.200
42.92000 200.031
42.96000 195.574
43.00000 200.741
43.04000 200.605
43.08000 184.002
43.12000 190.250
43.16000 191.496
43.20000 206.305
43.24000 208.327
43.28000 202.423
43.32000 194.988
43.36000 196.750
43.40000 191.881
43.44000 203.978
43.48000 187.009
43.52000 191.919
43.56000 182.040
43.60000 197.007
43.64000 184.076
43.68000 182.211
43.72000 192.573
43.76000 189.128
43.80000 201.420
43.84000 192.454
43.88000 196.361
43.92000 183.756
43.96000 194.006
44.00000 201.336
44.04000 202.641
44.08000 209.065
44.12000 190.022
44.16000 186.182
44.20000 191.261
44.24000 202.256
44.28000 183.303
44.32000 200.218
44.36000 204.215
44.40000 204.093
44.44000 199.513
44.48000 209.204
44.52000 195.825
44.56000 198.661
44.60000 223.412
44.64000 205.078
44.68000 203.679
44.72000 223.617
44.76000 216.365
44.80000 205.025
44.84000 210.138
44.88000 217.499
44.92000 213.329
44.96000 216.614
45.00000 214.135
45.04000 223.262
45.08000 217.034
45.12000 223.678
45.16000 203.550
45.20000 210.508
45.24000 222.836
45.28000 221.454
45.32000 194.890
45.36000 196.355
45.40000 208.347
45.44000 205.740
45.48000 196.998
45.52000 191.480
45.56000 195.439
45.60000 203.826
45.64000 188.378
45.68000 178.744
45.72000 182.184
45.76000 176.406
45.80000 177.677
45.84000 172.849
45.88000 168.610
45.92000 176.778
45.96000 180.502
46.00000 185.475
46.04000 183.385
46.08000 180.475
46.12000 176.098
46.16000 178.883
46.20000 171.409
46.24000 172.400
46.28000 167.332
46.32000 173.103
46.36000 168.958
46.40000 176.099
46.44000 175.898
46.48000 176.456
46.52000 183.605
46.56000 173.885
46.60000 177.389
46.64000 178.850
46.68000 176.897
46.72000 186.637
46.76000 170.312
46.80000 167.049
46.84000 170.605
46.88000 165.120
46.92000 180.419
46.96000 173.018
47.00000 174.817
47.04000 171.129
47.08000 159.887
47.12000 164.477
47.16000 171.981
47.20000 170.638
47.24000 160.601
47.28000 157.856
47.32000 166.172
47.36000 161.661
47.40000 154.180
47.44000 154.808
47.48000 159.926
47.52000 149.187
47.56000 170.589
47.60000 167.455
47.64000 176.054
47.68000 155.360
47.72000 159.459
47.76000 162.128
47.80000 172.131
47.84000 158.951
47.88000 158.795
47.92000 162.776
47.96000 157.521
48.00000 164.399
48.04000 170.315
48.08000 158.254
48.12000 163.660
48.16000 164.897
48.20000 160.229
48.24000 165.227
48.28000 155.434
48.32000 152.296
48.36000 163.076
48.40000 154.516
48.44000 164.835
48.48000 151.504
48.52000 165.026
48.56000 164.248
48.60000 165.229
48.64000 155.644
48.68000 159.862
48.72000 167.665
48.76000 158.237
48.80000 164.182
48.84000 154.487
48.88000 148.047
48.92000 153.238
48.96000 170.315
49.00000 163.839
49.04000 161.127
49.08000 144.210
49.12000 154.056
49.16000 153.018
49.20000 156.564
49.24000 147.764
49.28000 162.555
49.32000 159.512
49.36000 154.794
49.40000 157.608
49.44000 150.952
49.48000 158.377
49.52000 153.406
49.56000 153.944
49.60000 143.718
49.64000 151.715
49.68000 152.681
49.72000 153.264
49.76000 153.722
49.80000 155.842
49.84000 157.311
49.88000 149.948
49.92000 150.221
49.96000 147.384
50.00000 142.502
50.04000 150.522
50.08000 151.930
50.12000 157.116
50.16000 148.485
50.20000 164.768
50.24000 144.066
50.28000 150.294
50.32000 159.409
50.36000 167.621
50.40000 153.151
50.44000 146.989
50.48000 155.521
50.52000 154.247
50.56000 170.435
50.60000 165.617
50.64000 167.389
50.68000 167.467
50.72000 166.239
50.76000 160.031
50.80000 158.411
50.84000 171.435
50.88000 156.778
50.92000 172.590
50.96000 151.791
51.00000 159.379
51.04000 150.907
51.08000 156.538
51.12000 151.715
51.16000 149.836
51.20000 150.523
51.24000 141.951
51.28000 151.078
51.32000 143.272
51.36000 152.716
51.40000 150.293
51.44000 147.160
51.48000 153.419
51.52000 145.657
51.56000 129.280
51.60000 145.958
51.64000 146.903
51.68000 144.855
51.72000 148.809
51.76000 136.455
51.80000 140.231
51.84000 140.119
51.88000 151.415
51.92000 145.265
51.96000 140.796
52.00000 142.484
52.04000 138.654
52.08000 131.444
52.12000 137.949
52.16000 129.878
52.20000 150.038
52.24000 143.194
52.28000 141.446
52.32000 140.793
52.36000 137.496
52.40000 140.163
52.44000 142.790
52.48000 139.946
52.52000 140.249
52.56000 145.376
52.60000 140.941
52.64000 141.806
52.68000 140.129
52.72000 136.192
52.76000 140.375
52.80000 131.105
52.84000 138.087
52.88000 132.774
52.92000 141.975
52.96000 137.474
53.00000 138.607
53.04000 144.245
53.08000 137.808
53.12000 138.659
53.16000 142.568
53.20000 133.291
53.24000 147.832
53.28000 153.444
53.32000 137.270
53.36000 143.893
53.40000 143.584
53.44000 136.028
53.48000 142.463
53.52000 141.763
53.56000 130.116
53.60000 134.400
53.64000 145.118
53.68000 138.766
53.72000 137.100
53.76000 143.492
53.80000 143.734
53.84000 141.780
53.88000 144.419
53.92000 137.828
53.96000 142.296
54.00000 138.563
54.04000 139.119
54.08000 136.732
54.12000 136.067
54.16000 141.323
54.20000 128.675
54.24000 138.018
54.28000 137.886
54.32000 145.743
54.36000 133.199
54.40000 135.481
54.44000 142.472
54.48000 137.696
54.52000 131.438
54.56000 133.690
54.60000 141.108
54.64000 136.388
54.68000 132.768
54.72000 132.048
54.76000 133.829
54.80000 142.768
54.84000 138.334
54.88000 131.065
54.92000 140.747
54.96000 136.891
55.00000 147.704
55.04000 143.877
55.08000 139.094
55.12000 130.779
55.16000 153.385
55.20000 146.701
55.24000 138.320
55.28000 144.558
55.32000 144.754
55.36000 155.923
55.40000 164.730
55.44000 151.506
55.48000 170.431
55.52000 159.905
55.56000 186.418
55.60000 201.482
55.64000 200.433
55.68000 209.123
55.72000 218.594
55.76000 250.569
55.80000 249.532
55.84000 246.366
55.88000 266.432
55.92000 288.249
55.96000 280.530
56.00000 277.161
56.04000 269.358
56.08000 256.266
56.12000 236.164
56.16000 221.190
56.20000 218.846
56.24000 222.195
56.28000 189.867
56.32000 181.079
56.36000 185.613
56.40000 176.160
56.44000 168.991
56.48000 149.698
56.52000 145.182
56.56000 147.753
56.60000 143.226
56.64000 141.926
56.68000 136.198
56.72000 140.780
56.76000 140.438
56.80000 133.184
56.84000 138.575
56.88000 140.033
56.92000 128.987
56.96000 136.258
57.00000 127.637
57.04000 122.522
57.08000 140.339
57.12000 130.410
57.16000 125.095
57.20000 124.029
57.24000 124.212
57.28000 116.532
57.32000 128.072
57.36000 121.832
57.40000 133.003
57.44000 133.019
57.48000 135.110
57.52000 128.208
57.56000 128.384
57.60000 124.450
57.64000 127.273
57.68000 128.298
57.72000 133.212
57.76000 126.258
57.80000 130.201
57.84000 124.645
57.88000 120.420
57.92000 117.886
57.96000 126.523
58.00000 123.708
58.04000 116.008
58.08000 119.635
58.12000 117.292
58.16000 122.516
58.20000 119.795
58.24000 121.583
58.28000 126.352
58.32000 128.004
58.36000 112.092
58.40000 123.604
58.44000 120.187
58.48000 121.351
58.52000 123.437
58.56000 122.723
58.60000 118.233
58.64000 131.416
58.68000 119.705
58.72000 118.379
58.76000 123.266
58.80000 124.168
58.84000 121.239
58.88000 117.398
58.92000 114.359
58.96000 118.492
59.00000 121.259
59.04000 110.901
59.08000 133.085
59.12000 117.528
59.16000 110.059
59.20000 116.219
59.24000 116.370
59.28000 129.772
59.32000 117.980
59.36000 125.068
59.40000 123.894
59.44000 116.917
59.48000 134.873
59.52000 113.816
59.56000 120.722
59.60000 114.400
59.64000 118.485
59.68000 121.614
59.72000 119.554
59.76000 117.789
59.80000 118.132
59.84000 119.146
59.88000 118.720
59.92000 113.277
59.96000 118.577
60.00000 113.254
60.04000 116.511
60.08000 118.902
60.12000 109.948
60.16000 113.007
60.20000 121.518
60.24000 117.298
60.28000 113.514
60.32000 119.565
60.36000 113.288
60.40000 123.893
60.44000 116.169
60.48000 118.121
60.52000 114.920
60.56000 114.586
60.60000 129.525
60.64000 117.017
60.68000 121.870
60.72000 129.772
60.76000 120.684
60.80000 122.904
60.84000 121.061
60.88000 112.707
60.92000 123.156
60.96000 124.073
61.00000 124.478
61.04000 132.110
61.08000 120.076
61.12000 129.841
61.16000 123.668
61.20000 122.358
61.24000 127.106
61.28000 121.530
61.32000 123.117
61.36000 120.932
61.40000 115.172
61.44000 129.001
61.48000 143.167
61.52000 148.061
61.56000 205.527
61.60000 245.456
61.64000 282.068
61.68000 299.997
61.72000 304.582
61.76000 279.823
61.80000 225.225
61.84000 183.871
61.88000 152.424
61.92000 140.609
61.96000 125.656
62.00000 127.442
62.04000 122.376
62.08000 131.016
62.12000 132.742
62.16000 115.584
62.20000 131.248
62.24000 134.781
62.28000 131.369
62.32000 131.643
62.36000 133.123
62.40000 125.289
62.44000 121.532
62.48000 130.955
62.52000 126.132
62.56000 127.210
62.60000 132.885
62.64000 132.422
62.68000 132.948
62.72000 125.694
62.76000 131.700
62.80000 125.642
62.84000 134.988
62.88000 136.718
62.92000 133.809
62.96000 128.001
63.00000 143.154
63.04000 128.161
63.08000 140.271
63.12000 132.875
63.16000 131.647
63.20000 134.189
63.24000 143.273
63.28000 141.275
63.32000 139.658
63.36000 144.421
63.40000 141.906
63.44000 137.130
63.48000 135.520
63.52000 130.961
63.56000 139.637
63.60000 129.172
63.64000 147.358
63.68000 142.149
63.72000 145.921
63.76000 151.549
63.80000 147.100
63.84000 135.659
63.88000 148.199
63.92000 139.863
63.96000 152.325
64.00000 151.917
64.04000 158.422
64.08000 149.232
64.12000 146.850
64.16000 149.020
64.20000 148.652
64.24000 152.267
64.28000 150.065
64.32000 149.599
64.36000 157.833
64.40000 150.762
64.44000 165.418
64.48000 161.791
64.52000 156.569
64.56000 157.841
64.60000 168.833
64.64000 168.403
64.68000 174.815
64.72000 176.863
64.76000 161.347
64.80000 173.939
64.84000 177.341
64.88000 188.651
64.92000 174.834
64.96000 187.555
65.00000 187.079
65.04000 195.064
65.08000 203.101
65.12000 193.872
65.16000 203.373
65.20000 206.233
65.24000 207.511
65.28000 228.144
65.32000 234.962
65.36000 246.206
65.40000 244.376
65.44000 264.076
65.48000 277.842
65.52000 280.854
65.56000 304.391
65.60000 356.695
65.64000 406.139
65.68000 547.269
65.72000 874.881
65.76000 1377.604
65.80000 1756.199
65.84000 1963.162
65.88000 1989.933
65.92000 1934.567
65.96000 1602.402
66.00000 1045.870
66.04000 656.144
66.08000 482.810
66.12000 417.884
66.16000 372.555
66.20000 375.321
66.24000 415.730
66.28000 458.653
66.32000 550.300
66.36000 592.722
66.40000 642.603
66.44000 633.251
66.48000 622.932
66.52000 558.998
66.56000 459.311
66.60000 395.870
66.64000 374.166
66.68000 366.421
66.72000 357.297
66.76000 367.844
66.80000 365.563
66.84000 371.682
66.88000 358.396
66.92000 360.202
66.96000 360.959
67.00000 373.293
67.04000 371.514
67.08000 380.320
67.12000 407.563
67.16000 377.061
67.20000 398.776
67.24000 399.255
67.28000 395.043
67.32000 415.780
67.36000 407.609
67.40000 420.476
67.44000 428.691
67.48000 421.271
67.52000 430.127
67.56000 417.870
67.60000 431.774
67.64000 451.357
67.68000 432.469
67.72000 457.494
67.76000 468.743
67.80000 483.022
67.84000 461.169
67.88000 493.509
67.92000 503.905
67.96000 494.374
68.00000 523.815
68.04000 516.677
68.08000 516.803
68.12000 514.371
68.16000 537.463
68.20000 561.576
68.24000 568.301
68.28000 588.924
68.32000 617.918
68.36000 617.247
68.40000 646.811
68.44000 676.453
68.48000 688.299
68.52000 723.621
68.56000 773.009
68.60000 847.044
68.64000 992.492
68.68000 1151.397
68.72000 1338.921
68.76000 1463.504
68.80000 1653.464
68.84000 1853.565
68.88000 2307.479
68.92000 3236.691
68.96000 8739.784
69.00000 20729.186
69.04000 34085.961
69.08000 41368.105
69.12000 44403.699
69.16000 47245.434
69.20000 47482.566
69.24000 39087.629
69.28000 28396.734
69.32000 23140.912
69.36000 21475.736
69.40000 18346.205
69.44000 11726.677
69.48000 5239.706
69.52000 2318.101
69.56000 1383.991
69.60000 1086.893
69.64000 929.184
69.68000 818.212
69.72000 753.591
69.76000 688.652
69.80000 648.119
69.84000 608.715
69.88000 565.215
69.92000 538.267
69.96000 527.353
70.00000 493.807