File: XRD/XRD/07-10-2025 Dep 6/XY Data/BTO_Mapping_Theta2Theta_07-10-2025_001_56_20-074_-22-294.xy
20.00000 460.298
20.04000 459.045
20.08000 467.714
20.12000 473.149
20.16000 479.475
20.20000 464.472
20.24000 472.487
20.28000 456.377
20.32000 472.089
20.36000 454.171
20.40000 474.367
20.44000 461.367
20.48000 473.638
20.52000 450.629
20.56000 461.685
20.60000 462.450
20.64000 456.969
20.68000 463.211
20.72000 456.951
20.76000 459.417
20.80000 468.913
20.84000 455.748
20.88000 469.408
20.92000 442.920
20.96000 473.726
21.00000 481.145
21.04000 477.804
21.08000 464.016
21.12000 454.847
21.16000 471.718
21.20000 456.346
21.24000 460.188
21.28000 454.736
21.32000 463.606
21.36000 460.248
21.40000 476.806
21.44000 458.895
21.48000 451.007
21.52000 468.848
21.56000 474.303
21.60000 475.717
21.64000 469.930
21.68000 466.418
21.72000 488.083
21.76000 475.863
21.80000 471.035
21.84000 489.632
21.88000 488.723
21.92000 484.035
21.96000 506.893
22.00000 508.551
22.04000 497.484
22.08000 519.617
22.12000 507.962
22.16000 492.363
22.20000 507.880
22.24000 492.769
22.28000 490.496
22.32000 456.833
22.36000 471.109
22.40000 478.471
22.44000 463.563
22.48000 461.831
22.52000 460.201
22.56000 449.123
22.60000 453.838
22.64000 446.586
22.68000 442.116
22.72000 451.515
22.76000 431.899
22.80000 434.671
22.84000 444.813
22.88000 431.365
22.92000 436.632
22.96000 426.641
23.00000 433.998
23.04000 434.730
23.08000 443.482
23.12000 449.553
23.16000 435.761
23.20000 458.190
23.24000 439.900
23.28000 429.352
23.32000 426.503
23.36000 449.437
23.40000 439.464
23.44000 454.471
23.48000 439.406
23.52000 433.969
23.56000 440.183
23.60000 455.704
23.64000 459.915
23.68000 448.670
23.72000 473.790
23.76000 471.180
23.80000 486.098
23.84000 503.640
23.88000 514.180
23.92000 513.483
23.96000 513.872
24.00000 508.620
24.04000 519.886
24.08000 523.605
24.12000 498.218
24.16000 482.621
24.20000 480.233
24.24000 449.756
24.28000 462.320
24.32000 437.084
24.36000 438.717
24.40000 438.247
24.44000 423.428
24.48000 414.611
24.52000 415.134
24.56000 413.111
24.60000 415.010
24.64000 393.419
24.68000 415.422
24.72000 402.631
24.76000 421.570
24.80000 418.734
24.84000 398.553
24.88000 392.967
24.92000 403.987
24.96000 388.862
25.00000 401.818
25.04000 408.496
25.08000 426.273
25.12000 406.743
25.16000 407.639
25.20000 403.295
25.24000 409.596
25.28000 397.563
25.32000 412.441
25.36000 402.829
25.40000 394.713
25.44000 394.036
25.48000 405.080
25.52000 385.453
25.56000 391.935
25.60000 387.893
25.64000 400.244
25.68000 387.772
25.72000 405.385
25.76000 399.276
25.80000 399.179
25.84000 408.888
25.88000 403.969
25.92000 397.872
25.96000 375.683
26.00000 382.116
26.04000 381.201
26.08000 395.556
26.12000 382.620
26.16000 378.289
26.20000 368.922
26.24000 398.202
26.28000 390.711
26.32000 383.515
26.36000 381.264
26.40000 387.070
26.44000 387.715
26.48000 375.638
26.52000 386.027
26.56000 373.057
26.60000 395.476
26.64000 381.673
26.68000 378.141
26.72000 398.415
26.76000 365.665
26.80000 385.243
26.84000 382.685
26.88000 366.393
26.92000 371.417
26.96000 359.847
27.00000 377.349
27.04000 375.458
27.08000 366.161
27.12000 383.634
27.16000 388.609
27.20000 371.843
27.24000 361.859
27.28000 378.065
27.32000 367.949
27.36000 361.134
27.40000 386.298
27.44000 364.630
27.48000 376.688
27.52000 380.453
27.56000 368.878
27.60000 364.516
27.64000 375.917
27.68000 373.470
27.72000 356.986
27.76000 368.394
27.80000 370.143
27.84000 367.838
27.88000 356.905
27.92000 365.531
27.96000 359.951
28.00000 363.220
28.04000 368.249
28.08000 365.622
28.12000 369.615
28.16000 370.746
28.20000 361.917
28.24000 360.067
28.28000 369.905
28.32000 356.418
28.36000 364.858
28.40000 352.984
28.44000 362.520
28.48000 370.197
28.52000 362.456
28.56000 344.327
28.60000 368.443
28.64000 352.207
28.68000 357.746
28.72000 360.862
28.76000 348.043
28.80000 355.630
28.84000 360.093
28.88000 348.185
28.92000 352.496
28.96000 364.377
29.00000 355.610
29.04000 347.198
29.08000 346.084
29.12000 343.749
29.16000 368.396
29.20000 346.075
29.24000 350.760
29.28000 350.507
29.32000 356.596
29.36000 364.964
29.40000 356.167
29.44000 359.549
29.48000 351.966
29.52000 349.409
29.56000 349.959
29.60000 355.806
29.64000 355.755
29.68000 336.254
29.72000 344.127
29.76000 342.954
29.80000 354.042
29.84000 354.787
29.88000 367.168
29.92000 384.568
29.96000 385.510
30.00000 380.816
30.04000 372.692
30.08000 375.422
30.12000 363.195
30.16000 371.106
30.20000 382.078
30.24000 371.716
30.28000 352.822
30.32000 360.919
30.36000 377.377
30.40000 379.585
30.44000 372.658
30.48000 345.213
30.52000 360.905
30.56000 363.947
30.60000 363.443
30.64000 349.815
30.68000 363.090
30.72000 390.152
30.76000 398.500
30.80000 390.120
30.84000 420.923
30.88000 413.475
30.92000 415.120
30.96000 444.471
31.00000 454.660
31.04000 490.786
31.08000 538.001
31.12000 617.636
31.16000 658.751
31.20000 753.903
31.24000 825.400
31.28000 955.531
31.32000 1006.810
31.36000 1061.183
31.40000 1098.916
31.44000 1048.608
31.48000 944.198
31.52000 870.253
31.56000 783.880
31.60000 665.124
31.64000 595.179
31.68000 539.459
31.72000 483.067
31.76000 462.482
31.80000 428.383
31.84000 398.486
31.88000 392.481
31.92000 391.206
31.96000 385.342
32.00000 367.726
32.04000 362.648
32.08000 369.491
32.12000 349.417
32.16000 336.470
32.20000 351.751
32.24000 348.631
32.28000 342.128
32.32000 334.941
32.36000 359.612
32.40000 342.992
32.44000 347.102
32.48000 309.440
32.52000 319.401
32.56000 310.832
32.60000 327.713
32.64000 343.135
32.68000 323.507
32.72000 332.222
32.76000 319.503
32.80000 337.268
32.84000 399.392
32.88000 449.826
32.92000 500.831
32.96000 522.522
33.00000 542.999
33.04000 509.990
33.08000 449.272
33.12000 380.203
33.16000 350.186
33.20000 316.326
33.24000 305.303
33.28000 310.062
33.32000 304.732
33.36000 309.017
33.40000 299.190
33.44000 308.562
33.48000 296.509
33.52000 294.890
33.56000 303.443
33.60000 297.822
33.64000 309.544
33.68000 298.674
33.72000 278.922
33.76000 301.231
33.80000 295.943
33.84000 304.768
33.88000 317.928
33.92000 316.685
33.96000 304.198
34.00000 312.471
34.04000 312.230
34.08000 304.678
34.12000 326.641
34.16000 309.121
34.20000 316.466
34.24000 324.172
34.28000 317.494
34.32000 318.485
34.36000 325.361
34.40000 330.566
34.44000 305.132
34.48000 309.013
34.52000 309.676
34.56000 311.570
34.60000 317.575
34.64000 301.966
34.68000 299.715
34.72000 297.115
34.76000 312.524
34.80000 286.978
34.84000 270.613
34.88000 290.043
34.92000 286.895
34.96000 282.617
35.00000 278.906
35.04000 288.006
35.08000 271.874
35.12000 272.280
35.16000 281.246
35.20000 269.331
35.24000 262.856
35.28000 273.624
35.32000 272.010
35.36000 266.948
35.40000 268.715
35.44000 260.184
35.48000 268.345
35.52000 247.188
35.56000 262.528
35.60000 271.954
35.64000 254.716
35.68000 270.569
35.72000 259.753
35.76000 259.726
35.80000 272.411
35.84000 254.302
35.88000 246.621
35.92000 259.341
35.96000 262.945
36.00000 249.136
36.04000 249.994
36.08000 244.862
36.12000 255.084
36.16000 257.221
36.20000 263.910
36.24000 257.126
36.28000 268.851
36.32000 245.756
36.36000 263.282
36.40000 260.828
36.44000 258.838
36.48000 238.225
36.52000 248.915
36.56000 253.371
36.60000 253.057
36.64000 244.644
36.68000 253.525
36.72000 263.783
36.76000 249.377
36.80000 258.648
36.84000 247.364
36.88000 269.001
36.92000 257.356
36.96000 267.211
37.00000 262.148
37.04000 263.684
37.08000 273.968
37.12000 278.578
37.16000 254.256
37.20000 251.967
37.24000 248.482
37.28000 254.047
37.32000 249.522
37.36000 259.869
37.40000 249.464
37.44000 244.158
37.48000 254.735
37.52000 260.046
37.56000 253.419
37.60000 251.604
37.64000 262.983
37.68000 253.293
37.72000 257.571
37.76000 248.656
37.80000 253.979
37.84000 247.549
37.88000 242.258
37.92000 247.801
37.96000 241.281
38.00000 261.424
38.04000 260.724
38.08000 248.750
38.12000 253.274
38.16000 254.435
38.20000 262.043
38.24000 268.638
38.28000 279.982
38.32000 286.025
38.36000 299.957
38.40000 315.031
38.44000 344.833
38.48000 403.335
38.52000 469.894
38.56000 553.488
38.60000 592.712
38.64000 701.732
38.68000 738.373
38.72000 768.594
38.76000 745.805
38.80000 649.819
38.84000 633.654
38.88000 525.669
38.92000 441.207
38.96000 369.626
39.00000 317.712
39.04000 283.385
39.08000 273.637
39.12000 263.330
39.16000 250.310
39.20000 253.607
39.24000 225.945
39.28000 235.849
39.32000 238.368
39.36000 248.157
39.40000 251.513
39.44000 252.423
39.48000 241.279
39.52000 237.187
39.56000 234.079
39.60000 235.962
39.64000 241.200
39.68000 250.067
39.72000 237.656
39.76000 234.817
39.80000 230.980
39.84000 234.373
39.88000 234.442
39.92000 231.474
39.96000 225.855
40.00000 226.238
40.04000 214.038
40.08000 225.995
40.12000 224.581
40.16000 221.053
40.20000 217.315
40.24000 241.654
40.28000 223.222
40.32000 224.997
40.36000 229.661
40.40000 221.103
40.44000 226.037
40.48000 218.786
40.52000 208.549
40.56000 230.042
40.60000 215.149
40.64000 214.296
40.68000 215.997
40.72000 215.837
40.76000 208.668
40.80000 198.651
40.84000 207.808
40.88000 213.446
40.92000 216.235
40.96000 211.998
41.00000 219.375
41.04000 213.231
41.08000 202.628
41.12000 213.673
41.16000 212.958
41.20000 216.434
41.24000 204.369
41.28000 209.510
41.32000 213.849
41.36000 219.426
41.40000 204.960
41.44000 199.891
41.48000 205.384
41.52000 212.371
41.56000 214.920
41.60000 195.705
41.64000 205.458
41.68000 203.012
41.72000 202.733
41.76000 208.998
41.80000 214.078
41.84000 206.679
41.88000 202.093
41.92000 216.493
41.96000 222.586
42.00000 213.370
42.04000 213.524
42.08000 204.437
42.12000 219.652
42.16000 217.099
42.20000 213.819
42.24000 212.035
42.28000 219.886
42.32000 227.418
42.36000 221.077
42.40000 227.527
42.44000 195.707
42.48000 220.209
42.52000 219.498
42.56000 210.816
42.60000 203.121
42.64000 199.283
42.68000 204.132
42.72000 204.851
42.76000 211.039
42.80000 212.358
42.84000 203.496
42.88000 199.232
42.92000 192.671
42.96000 190.149
43.00000 209.825
43.04000 208.543
43.08000 210.833
43.12000 201.783
43.16000 202.763
43.20000 196.227
43.24000 206.209
43.28000 195.068
43.32000 198.642
43.36000 190.955
43.40000 197.426
43.44000 194.522
43.48000 194.947
43.52000 202.619
43.56000 202.341
43.60000 190.261
43.64000 190.464
43.68000 191.813
43.72000 194.495
43.76000 205.246
43.80000 185.854
43.84000 185.411
43.88000 192.665
43.92000 192.599
43.96000 189.500
44.00000 193.485
44.04000 189.749
44.08000 178.776
44.12000 188.251
44.16000 197.139
44.20000 186.772
44.24000 198.708
44.28000 195.398
44.32000 203.347
44.36000 195.696
44.40000 202.354
44.44000 207.122
44.48000 198.931
44.52000 206.468
44.56000 209.881
44.60000 215.410
44.64000 215.870
44.68000 215.138
44.72000 224.658
44.76000 215.247
44.80000 214.160
44.84000 217.246
44.88000 227.515
44.92000 232.050
44.96000 232.462
45.00000 228.944
45.04000 225.598
45.08000 232.437
45.12000 222.791
45.16000 227.917
45.20000 204.789
45.24000 216.159
45.28000 225.198
45.32000 212.564
45.36000 212.648
45.40000 217.081
45.44000 211.778
45.48000 211.352
45.52000 203.439
45.56000 201.039
45.60000 193.779
45.64000 195.141
45.68000 196.999
45.72000 198.231
45.76000 191.624
45.80000 187.311
45.84000 182.008
45.88000 175.078
45.92000 183.227
45.96000 183.540
46.00000 172.996
46.04000 168.281
46.08000 176.182
46.12000 179.088
46.16000 168.593
46.20000 176.149
46.24000 179.701
46.28000 185.495
46.32000 176.449
46.36000 179.478
46.40000 178.046
46.44000 175.773
46.48000 181.551
46.52000 181.836
46.56000 180.329
46.60000 187.700
46.64000 179.338
46.68000 175.137
46.72000 178.570
46.76000 180.370
46.80000 164.714
46.84000 168.799
46.88000 171.354
46.92000 178.596
46.96000 177.003
47.00000 176.242
47.04000 182.677
47.08000 167.869
47.12000 174.204
47.16000 163.885
47.20000 159.337
47.24000 165.524
47.28000 166.328
47.32000 173.207
47.36000 167.891
47.40000 159.512
47.44000 166.239
47.48000 171.071
47.52000 161.005
47.56000 166.850
47.60000 157.854
47.64000 171.397
47.68000 157.608
47.72000 167.110
47.76000 155.096
47.80000 162.322
47.84000 158.359
47.88000 164.349
47.92000 155.002
47.96000 154.977
48.00000 164.402
48.04000 154.057
48.08000 165.146
48.12000 165.095
48.16000 164.443
48.20000 160.944
48.24000 159.208
48.28000 168.302
48.32000 161.139
48.36000 165.855
48.40000 163.692
48.44000 151.808
48.48000 158.635
48.52000 167.629
48.56000 153.915
48.60000 164.101
48.64000 165.780
48.68000 152.289
48.72000 153.864
48.76000 154.215
48.80000 155.919
48.84000 165.695
48.88000 167.895
48.92000 149.252
48.96000 154.555
49.00000 151.471
49.04000 150.730
49.08000 156.382
49.12000 161.766
49.16000 155.642
49.20000 147.917
49.24000 163.674
49.28000 150.581
49.32000 147.243
49.36000 158.162
49.40000 162.477
49.44000 156.304
49.48000 145.097
49.52000 149.295
49.56000 149.921
49.60000 154.495
49.64000 174.092
49.68000 150.026
49.72000 165.806
49.76000 152.077
49.80000 144.211
49.84000 149.441
49.88000 148.007
49.92000 162.579
49.96000 145.172
50.00000 156.357
50.04000 150.569
50.08000 150.474
50.12000 161.111
50.16000 158.006
50.20000 152.116
50.24000 163.595
50.28000 156.445
50.32000 158.050
50.36000 154.953
50.40000 156.625
50.44000 165.518
50.48000 166.884
50.52000 162.420
50.56000 160.766
50.60000 164.775
50.64000 144.375
50.68000 165.399
50.72000 175.401
50.76000 169.009
50.80000 166.764
50.84000 164.722
50.88000 156.975
50.92000 152.624
50.96000 161.991
51.00000 158.740
51.04000 152.819
51.08000 162.557
51.12000 152.215
51.16000 146.154
51.20000 159.515
51.24000 151.022
51.28000 164.837
51.32000 154.191
51.36000 148.488
51.40000 142.380
51.44000 139.691
51.48000 138.153
51.52000 132.093
51.56000 144.624
51.60000 135.166
51.64000 146.917
51.68000 145.852
51.72000 142.478
51.76000 140.190
51.80000 136.484
51.84000 137.831
51.88000 139.574
51.92000 141.460
51.96000 134.300
52.00000 144.289
52.04000 147.739
52.08000 139.311
52.12000 140.844
52.16000 141.175
52.20000 132.094
52.24000 132.666
52.28000 138.455
52.32000 146.948
52.36000 136.261
52.40000 136.689
52.44000 141.755
52.48000 131.352
52.52000 136.818
52.56000 137.502
52.60000 132.223
52.64000 142.111
52.68000 142.082
52.72000 148.767
52.76000 143.713
52.80000 145.993
52.84000 146.757
52.88000 133.812
52.92000 140.698
52.96000 153.589
53.00000 142.570
53.04000 137.998
53.08000 143.690
53.12000 139.479
53.16000 142.129
53.20000 145.000
53.24000 145.253
53.28000 143.267
53.32000 140.927
53.36000 150.327
53.40000 146.801
53.44000 152.872
53.48000 154.773
53.52000 145.560
53.56000 142.361
53.60000 138.469
53.64000 149.524
53.68000 139.733
53.72000 141.270
53.76000 138.772
53.80000 138.736
53.84000 132.171
53.88000 139.662
53.92000 141.506
53.96000 139.042
54.00000 142.804
54.04000 147.729
54.08000 153.255
54.12000 134.985
54.16000 139.663
54.20000 138.423
54.24000 136.719
54.28000 134.143
54.32000 138.494
54.36000 150.247
54.40000 148.396
54.44000 143.349
54.48000 136.836
54.52000 143.423
54.56000 134.787
54.60000 135.390
54.64000 146.748
54.68000 140.182
54.72000 146.709
54.76000 139.546
54.80000 145.249
54.84000 139.249
54.88000 135.237
54.92000 140.228
54.96000 142.790
55.00000 152.611
55.04000 149.779
55.08000 146.621
55.12000 149.285
55.16000 148.150
55.20000 137.878
55.24000 152.672
55.28000 157.947
55.32000 168.902
55.36000 162.736
55.40000 164.962
55.44000 176.284
55.48000 190.321
55.52000 200.205
55.56000 204.019
55.60000 218.309
55.64000 240.906
55.68000 243.625
55.72000 281.733
55.76000 302.896
55.80000 312.334
55.84000 329.862
55.88000 363.212
55.92000 357.117
55.96000 362.178
56.00000 363.956
56.04000 358.469
56.08000 311.844
56.12000 329.714
56.16000 279.757
56.20000 263.743
56.24000 256.855
56.28000 223.842
56.32000 208.284
56.36000 185.804
56.40000 182.425
56.44000 177.381
56.48000 167.354
56.52000 158.847
56.56000 148.514
56.60000 144.912
56.64000 144.648
56.68000 145.460
56.72000 144.341
56.76000 146.188
56.80000 141.059
56.84000 137.416
56.88000 128.093
56.92000 132.068
56.96000 129.453
57.00000 138.163
57.04000 136.203
57.08000 139.274
57.12000 125.388
57.16000 128.411
57.20000 133.984
57.24000 139.891
57.28000 137.851
57.32000 132.587
57.36000 133.068
57.40000 115.508
57.44000 128.911
57.48000 127.365
57.52000 132.392
57.56000 125.609
57.60000 134.130
57.64000 132.012
57.68000 128.400
57.72000 119.926
57.76000 129.570
57.80000 134.003
57.84000 123.599
57.88000 134.552
57.92000 117.150
57.96000 131.121
58.00000 130.200
58.04000 124.429
58.08000 123.319
58.12000 130.168
58.16000 118.464
58.20000 120.732
58.24000 130.147
58.28000 122.104
58.32000 121.902
58.36000 118.570
58.40000 125.565
58.44000 121.642
58.48000 117.346
58.52000 121.360
58.56000 119.317
58.60000 114.528
58.64000 124.888
58.68000 116.515
58.72000 115.788
58.76000 113.604
58.80000 119.678
58.84000 112.255
58.88000 112.621
58.92000 111.962
58.96000 124.012
59.00000 114.874
59.04000 124.926
59.08000 123.909
59.12000 117.052
59.16000 125.915
59.20000 119.832
59.24000 118.507
59.28000 118.616
59.32000 121.583
59.36000 111.625
59.40000 121.559
59.44000 121.132
59.48000 116.959
59.52000 116.925
59.56000 117.297
59.60000 122.423
59.64000 113.849
59.68000 117.294
59.72000 117.141
59.76000 115.731
59.80000 113.765
59.84000 120.929
59.88000 119.732
59.92000 116.763
59.96000 124.089
60.00000 119.953
60.04000 121.008
60.08000 111.960
60.12000 107.917
60.16000 118.543
60.20000 108.316
60.24000 119.092
60.28000 117.342
60.32000 118.739
60.36000 122.247
60.40000 118.328
60.44000 119.500
60.48000 118.327
60.52000 124.820
60.56000 114.889
60.60000 116.959
60.64000 115.655
60.68000 117.201
60.72000 122.837
60.76000 112.159
60.80000 123.672
60.84000 122.885
60.88000 115.616
60.92000 124.112
60.96000 118.293
61.00000 118.191
61.04000 133.201
61.08000 125.053
61.12000 133.006
61.16000 123.652
61.20000 118.753
61.24000 128.700
61.28000 128.888
61.32000 125.944
61.36000 124.656
61.40000 128.609
61.44000 141.476
61.48000 135.539
61.52000 158.806
61.56000 195.707
61.60000 245.139
61.64000 275.123
61.68000 272.091
61.72000 279.466
61.76000 276.343
61.80000 228.736
61.84000 172.404
61.88000 148.626
61.92000 130.098
61.96000 142.357
62.00000 138.648
62.04000 145.649
62.08000 148.753
62.12000 132.676
62.16000 120.312
62.20000 133.710
62.24000 131.903
62.28000 125.754
62.32000 124.301
62.36000 132.458
62.40000 125.056
62.44000 125.298
62.48000 132.247
62.52000 123.226
62.56000 127.226
62.60000 146.884
62.64000 138.771
62.68000 135.203
62.72000 137.369
62.76000 127.540
62.80000 133.641
62.84000 129.803
62.88000 133.071
62.92000 126.616
62.96000 125.980
63.00000 132.754
63.04000 133.004
63.08000 129.583
63.12000 130.811
63.16000 136.007
63.20000 144.686
63.24000 127.626
63.28000 132.794
63.32000 124.630
63.36000 132.588
63.40000 132.818
63.44000 130.721
63.48000 137.581
63.52000 123.942
63.56000 133.615
63.60000 134.871
63.64000 137.259
63.68000 139.191
63.72000 133.009
63.76000 137.396
63.80000 147.471
63.84000 141.251
63.88000 141.023
63.92000 135.511
63.96000 144.996
64.00000 147.311
64.04000 139.057
64.08000 161.273
64.12000 152.337
64.16000 142.273
64.20000 149.957
64.24000 163.185
64.28000 145.957
64.32000 144.853
64.36000 147.976
64.40000 148.456
64.44000 165.767
64.48000 156.313
64.52000 163.911
64.56000 162.019
64.60000 167.932
64.64000 162.587
64.68000 163.707
64.72000 169.934
64.76000 175.766
64.80000 166.953
64.84000 167.537
64.88000 172.999
64.92000 183.001
64.96000 188.919
65.00000 198.121
65.04000 201.588
65.08000 213.777
65.12000 210.371
65.16000 197.904
65.20000 219.841
65.24000 226.153
65.28000 240.721
65.32000 240.434
65.36000 254.111
65.40000 251.859
65.44000 271.751
65.48000 263.481
65.52000 292.118
65.56000 301.341
65.60000 361.886
65.64000 400.845
65.68000 535.078
65.72000 854.210
65.76000 1343.871
65.80000 1727.609
65.84000 1940.021
65.88000 1984.536
65.92000 1861.920
65.96000 1554.662
66.00000 1058.365
66.04000 681.518
66.08000 479.063
66.12000 398.230
66.16000 375.393
66.20000 353.717
66.24000 381.605
66.28000 455.597
66.32000 526.502
66.36000 582.909
66.40000 637.679
66.44000 619.483
66.48000 591.213
66.52000 538.465
66.56000 455.414
66.60000 411.893
66.64000 369.170
66.68000 351.439
66.72000 375.435
66.76000 352.620
66.80000 350.054
66.84000 350.748
66.88000 355.251
66.92000 366.769
66.96000 370.315
67.00000 371.910
67.04000 380.785
67.08000 365.815
67.12000 395.750
67.16000 367.512
67.20000 374.265
67.24000 374.865
67.28000 392.918
67.32000 406.139
67.36000 396.811
67.40000 402.641
67.44000 408.947
67.48000 399.176
67.52000 413.395
67.56000 418.189
67.60000 447.583
67.64000 447.134
67.68000 441.774
67.72000 453.304
67.76000 449.624
67.80000 489.882
67.84000 484.061
67.88000 462.403
67.92000 496.082
67.96000 490.254
68.00000 511.196
68.04000 507.896
68.08000 529.041
68.12000 535.024
68.16000 536.463
68.20000 566.034
68.24000 542.108
68.28000 571.225
68.32000 591.062
68.36000 611.534
68.40000 621.442
68.44000 633.570
68.48000 655.891
68.52000 701.077
68.56000 766.643
68.60000 827.670
68.64000 958.702
68.68000 1103.022
68.72000 1286.583
68.76000 1461.215
68.80000 1608.078
68.84000 1832.199
68.88000 2225.222
68.92000 3202.642
68.96000 8522.268
69.00000 20072.088
69.04000 32869.863
69.08000 40213.375
69.12000 43212.145
69.16000 45866.922
69.20000 46344.215
69.24000 37874.133
69.28000 27575.742
69.32000 22460.830
69.36000 20767.547
69.40000 17813.350
69.44000 11423.156
69.48000 5232.155
69.52000 2257.797
69.56000 1392.837
69.60000 1090.571
69.64000 899.929
69.68000 807.438
69.72000 746.640
69.76000 668.339
69.80000 646.756
69.84000 599.791
69.88000 570.485
69.92000 554.205
69.96000 511.712
70.00000 500.026