File: XRD/XRD/07-10-2025 Dep 6/XY Data/BTO_Mapping_Theta2Theta_07-10-2025_001_46_-1-045_-9-945.xy
20.00000 501.447
20.04000 483.079
20.08000 489.719
20.12000 474.936
20.16000 466.289
20.20000 476.804
20.24000 461.298
20.28000 468.550
20.32000 474.228
20.36000 469.939
20.40000 470.493
20.44000 450.022
20.48000 470.402
20.52000 477.265
20.56000 457.472
20.60000 464.810
20.64000 454.078
20.68000 445.650
20.72000 446.909
20.76000 468.663
20.80000 462.044
20.84000 457.308
20.88000 473.641
20.92000 450.467
20.96000 456.705
21.00000 461.799
21.04000 448.211
21.08000 466.249
21.12000 464.819
21.16000 459.682
21.20000 450.435
21.24000 454.858
21.28000 447.524
21.32000 457.749
21.36000 473.850
21.40000 454.155
21.44000 462.585
21.48000 480.253
21.52000 450.012
21.56000 444.329
21.60000 467.749
21.64000 469.579
21.68000 469.575
21.72000 476.429
21.76000 483.416
21.80000 477.043
21.84000 482.799
21.88000 505.081
21.92000 495.106
21.96000 542.781
22.00000 535.034
22.04000 550.515
22.08000 530.695
22.12000 535.451
22.16000 528.595
22.20000 522.552
22.24000 493.802
22.28000 495.896
22.32000 467.330
22.36000 470.929
22.40000 462.013
22.44000 483.976
22.48000 469.317
22.52000 445.210
22.56000 445.100
22.60000 423.109
22.64000 440.743
22.68000 447.190
22.72000 450.233
22.76000 438.833
22.80000 445.644
22.84000 432.840
22.88000 440.088
22.92000 447.653
22.96000 430.525
23.00000 442.730
23.04000 436.056
23.08000 456.287
23.12000 434.655
23.16000 436.396
23.20000 443.847
23.24000 433.360
23.28000 435.172
23.32000 435.647
23.36000 428.640
23.40000 445.187
23.44000 418.182
23.48000 422.557
23.52000 417.223
23.56000 410.386
23.60000 432.493
23.64000 435.028
23.68000 459.259
23.72000 453.549
23.76000 461.783
23.80000 455.137
23.84000 478.457
23.88000 487.262
23.92000 475.425
23.96000 507.688
24.00000 485.496
24.04000 500.093
24.08000 469.846
24.12000 472.767
24.16000 459.574
24.20000 460.671
24.24000 434.490
24.28000 418.954
24.32000 434.101
24.36000 446.615
24.40000 412.041
24.44000 412.174
24.48000 422.995
24.52000 412.545
24.56000 409.096
24.60000 418.068
24.64000 406.730
24.68000 427.799
24.72000 416.926
24.76000 408.020
24.80000 390.505
24.84000 404.878
24.88000 406.907
24.92000 406.501
24.96000 381.113
25.00000 402.364
25.04000 401.671
25.08000 385.339
25.12000 403.573
25.16000 403.614
25.20000 402.050
25.24000 386.948
25.28000 394.977
25.32000 409.901
25.36000 391.862
25.40000 389.883
25.44000 392.455
25.48000 401.657
25.52000 408.658
25.56000 388.902
25.60000 408.831
25.64000 377.335
25.68000 388.345
25.72000 396.949
25.76000 395.991
25.80000 404.546
25.84000 391.490
25.88000 401.253
25.92000 405.163
25.96000 401.951
26.00000 390.685
26.04000 399.588
26.08000 387.974
26.12000 401.361
26.16000 389.663
26.20000 370.658
26.24000 393.941
26.28000 384.273
26.32000 376.529
26.36000 376.410
26.40000 389.045
26.44000 354.822
26.48000 381.495
26.52000 393.628
26.56000 354.668
26.60000 365.644
26.64000 371.844
26.68000 389.134
26.72000 383.958
26.76000 365.468
26.80000 369.985
26.84000 377.277
26.88000 356.954
26.92000 376.984
26.96000 372.152
27.00000 363.708
27.04000 362.974
27.08000 371.738
27.12000 363.667
27.16000 382.123
27.20000 374.415
27.24000 369.149
27.28000 361.876
27.32000 385.698
27.36000 367.254
27.40000 383.382
27.44000 346.319
27.48000 371.441
27.52000 357.997
27.56000 352.151
27.60000 360.578
27.64000 356.045
27.68000 374.027
27.72000 352.638
27.76000 354.840
27.80000 363.573
27.84000 368.215
27.88000 345.560
27.92000 352.634
27.96000 349.952
28.00000 356.140
28.04000 357.709
28.08000 376.597
28.12000 363.346
28.16000 358.037
28.20000 367.184
28.24000 348.387
28.28000 344.064
28.32000 359.962
28.36000 353.722
28.40000 350.863
28.44000 358.620
28.48000 359.887
28.52000 340.553
28.56000 336.488
28.60000 351.086
28.64000 359.334
28.68000 342.346
28.72000 347.880
28.76000 359.403
28.80000 346.591
28.84000 353.397
28.88000 351.374
28.92000 353.963
28.96000 353.628
29.00000 342.245
29.04000 346.560
29.08000 353.991
29.12000 351.986
29.16000 345.186
29.20000 352.428
29.24000 329.387
29.28000 347.401
29.32000 348.214
29.36000 351.950
29.40000 358.072
29.44000 347.440
29.48000 350.187
29.52000 347.310
29.56000 359.060
29.60000 328.109
29.64000 328.385
29.68000 341.442
29.72000 343.571
29.76000 346.665
29.80000 357.102
29.84000 346.551
29.88000 346.265
29.92000 365.059
29.96000 357.311
30.00000 365.087
30.04000 370.763
30.08000 364.704
30.12000 373.247
30.16000 370.884
30.20000 363.657
30.24000 348.485
30.28000 375.059
30.32000 371.783
30.36000 350.038
30.40000 345.528
30.44000 360.145
30.48000 350.888
30.52000 347.349
30.56000 346.710
30.60000 360.295
30.64000 350.852
30.68000 371.679
30.72000 353.425
30.76000 362.971
30.80000 369.042
30.84000 378.575
30.88000 372.174
30.92000 406.097
30.96000 405.227
31.00000 430.155
31.04000 457.277
31.08000 517.901
31.12000 574.074
31.16000 633.005
31.20000 752.896
31.24000 858.155
31.28000 970.541
31.32000 1059.476
31.36000 1116.589
31.40000 1106.984
31.44000 1062.285
31.48000 998.946
31.52000 890.994
31.56000 758.948
31.60000 663.447
31.64000 552.578
31.68000 510.325
31.72000 456.668
31.76000 430.020
31.80000 402.263
31.84000 381.022
31.88000 381.606
31.92000 359.109
31.96000 360.081
32.00000 345.806
32.04000 350.224
32.08000 346.584
32.12000 329.901
32.16000 332.997
32.20000 323.098
32.24000 330.986
32.28000 323.852
32.32000 332.628
32.36000 326.947
32.40000 335.705
32.44000 321.700
32.48000 314.570
32.52000 325.197
32.56000 319.274
32.60000 303.012
32.64000 316.339
32.68000 301.203
32.72000 317.994
32.76000 298.467
32.80000 337.211
32.84000 376.689
32.88000 431.255
32.92000 478.463
32.96000 510.865
33.00000 500.130
33.04000 475.326
33.08000 416.742
33.12000 365.153
33.16000 328.433
33.20000 312.481
33.24000 291.106
33.28000 295.437
33.32000 295.497
33.36000 298.812
33.40000 294.849
33.44000 288.973
33.48000 312.673
33.52000 299.334
33.56000 278.325
33.60000 298.371
33.64000 293.888
33.68000 287.001
33.72000 287.677
33.76000 292.733
33.80000 314.544
33.84000 297.630
33.88000 302.857
33.92000 299.339
33.96000 301.212
34.00000 313.316
34.04000 317.973
34.08000 316.365
34.12000 318.898
34.16000 316.882
34.20000 302.743
34.24000 320.675
34.28000 326.176
34.32000 327.574
34.36000 323.190
34.40000 347.112
34.44000 336.334
34.48000 327.182
34.52000 324.859
34.56000 305.469
34.60000 310.228
34.64000 303.263
34.68000 313.711
34.72000 289.684
34.76000 286.392
34.80000 286.878
34.84000 277.438
34.88000 271.790
34.92000 279.132
34.96000 285.392
35.00000 280.969
35.04000 269.949
35.08000 276.959
35.12000 263.084
35.16000 279.717
35.20000 276.986
35.24000 264.634
35.28000 266.709
35.32000 250.504
35.36000 266.453
35.40000 264.479
35.44000 252.810
35.48000 261.861
35.52000 274.195
35.56000 276.273
35.60000 254.845
35.64000 269.618
35.68000 251.023
35.72000 246.595
35.76000 256.691
35.80000 255.839
35.84000 256.428
35.88000 265.479
35.92000 268.285
35.96000 257.684
36.00000 254.122
36.04000 248.118
36.08000 250.405
36.12000 273.289
36.16000 261.029
36.20000 257.165
36.24000 260.497
36.28000 253.672
36.32000 251.045
36.36000 250.295
36.40000 241.631
36.44000 246.703
36.48000 248.738
36.52000 258.750
36.56000 243.217
36.60000 247.972
36.64000 242.655
36.68000 261.756
36.72000 259.975
36.76000 258.746
36.80000 266.679
36.84000 254.258
36.88000 264.246
36.92000 262.106
36.96000 277.798
37.00000 285.004
37.04000 290.859
37.08000 273.534
37.12000 260.550
37.16000 276.915
37.20000 256.103
37.24000 264.580
37.28000 266.437
37.32000 257.257
37.36000 253.638
37.40000 254.799
37.44000 266.088
37.48000 260.075
37.52000 255.154
37.56000 252.670
37.60000 273.649
37.64000 255.106
37.68000 257.771
37.72000 258.600
37.76000 246.701
37.80000 261.707
37.84000 245.566
37.88000 244.652
37.92000 249.161
37.96000 240.656
38.00000 247.008
38.04000 251.134
38.08000 256.527
38.12000 264.288
38.16000 254.430
38.20000 263.204
38.24000 267.514
38.28000 269.833
38.32000 279.039
38.36000 312.117
38.40000 341.029
38.44000 403.128
38.48000 473.550
38.52000 545.875
38.56000 675.987
38.60000 774.972
38.64000 873.205
38.68000 984.487
38.72000 1035.008
38.76000 1038.678
38.80000 938.839
38.84000 855.607
38.88000 706.203
38.92000 601.834
38.96000 480.355
39.00000 399.095
39.04000 323.975
39.08000 284.728
39.12000 265.741
39.16000 248.934
39.20000 249.522
39.24000 248.893
39.28000 232.061
39.32000 221.977
39.36000 231.767
39.40000 243.332
39.44000 236.104
39.48000 234.133
39.52000 246.904
39.56000 234.963
39.60000 220.441
39.64000 236.346
39.68000 244.875
39.72000 230.443
39.76000 230.931
39.80000 227.435
39.84000 220.137
39.88000 226.004
39.92000 226.981
39.96000 219.273
40.00000 221.752
40.04000 220.054
40.08000 237.684
40.12000 225.871
40.16000 215.881
40.20000 221.878
40.24000 222.143
40.28000 221.902
40.32000 217.061
40.36000 221.195
40.40000 231.240
40.44000 215.012
40.48000 211.361
40.52000 222.650
40.56000 216.096
40.60000 213.086
40.64000 221.314
40.68000 200.793
40.72000 218.124
40.76000 215.035
40.80000 221.088
40.84000 222.322
40.88000 224.753
40.92000 210.283
40.96000 204.126
41.00000 227.934
41.04000 210.122
41.08000 201.286
41.12000 218.988
41.16000 206.295
41.20000 194.693
41.24000 209.424
41.28000 196.917
41.32000 209.127
41.36000 202.036
41.40000 210.533
41.44000 205.906
41.48000 191.511
41.52000 206.920
41.56000 203.803
41.60000 198.286
41.64000 210.929
41.68000 210.349
41.72000 210.411
41.76000 203.394
41.80000 194.397
41.84000 207.905
41.88000 211.453
41.92000 204.534
41.96000 205.235
42.00000 195.588
42.04000 193.943
42.08000 204.386
42.12000 225.293
42.16000 205.321
42.20000 218.209
42.24000 205.056
42.28000 205.998
42.32000 216.971
42.36000 211.114
42.40000 209.785
42.44000 208.475
42.48000 210.194
42.52000 206.830
42.56000 208.083
42.60000 201.817
42.64000 202.931
42.68000 200.785
42.72000 209.373
42.76000 199.929
42.80000 202.430
42.84000 211.601
42.88000 205.204
42.92000 212.318
42.96000 208.742
43.00000 199.303
43.04000 189.195
43.08000 196.619
43.12000 209.137
43.16000 185.419
43.20000 181.658
43.24000 206.588
43.28000 192.951
43.32000 195.502
43.36000 197.402
43.40000 195.471
43.44000 195.343
43.48000 207.218
43.52000 187.257
43.56000 197.008
43.60000 191.042
43.64000 185.361
43.68000 199.791
43.72000 188.195
43.76000 195.138
43.80000 183.706
43.84000 199.308
43.88000 187.884
43.92000 194.454
43.96000 192.338
44.00000 188.872
44.04000 188.699
44.08000 183.058
44.12000 197.844
44.16000 188.102
44.20000 188.348
44.24000 178.444
44.28000 172.570
44.32000 194.230
44.36000 201.464
44.40000 209.369
44.44000 198.910
44.48000 211.572
44.52000 208.070
44.56000 211.161
44.60000 215.143
44.64000 203.718
44.68000 207.556
44.72000 218.540
44.76000 232.632
44.80000 225.327
44.84000 239.797
44.88000 233.995
44.92000 240.530
44.96000 250.939
45.00000 261.094
45.04000 253.813
45.08000 257.534
45.12000 258.570
45.16000 257.051
45.20000 253.630
45.24000 239.658
45.28000 246.778
45.32000 231.792
45.36000 218.797
45.40000 217.348
45.44000 216.583
45.48000 208.961
45.52000 206.330
45.56000 198.726
45.60000 206.058
45.64000 200.773
45.68000 198.115
45.72000 184.399
45.76000 198.678
45.80000 191.889
45.84000 187.321
45.88000 186.272
45.92000 180.920
45.96000 182.875
46.00000 171.345
46.04000 181.484
46.08000 178.722
46.12000 170.730
46.16000 186.595
46.20000 176.598
46.24000 173.770
46.28000 165.858
46.32000 173.389
46.36000 171.969
46.40000 173.475
46.44000 178.959
46.48000 168.361
46.52000 178.023
46.56000 177.238
46.60000 175.506
46.64000 172.817
46.68000 163.423
46.72000 177.599
46.76000 185.170
46.80000 172.667
46.84000 177.569
46.88000 169.181
46.92000 163.791
46.96000 172.415
47.00000 166.714
47.04000 160.703
47.08000 169.987
47.12000 163.192
47.16000 165.812
47.20000 152.118
47.24000 166.893
47.28000 163.411
47.32000 161.295
47.36000 153.847
47.40000 170.145
47.44000 158.206
47.48000 162.017
47.52000 164.600
47.56000 161.896
47.60000 148.114
47.64000 153.749
47.68000 154.535
47.72000 165.269
47.76000 151.497
47.80000 169.558
47.84000 150.713
47.88000 165.521
47.92000 168.788
47.96000 163.393
48.00000 156.795
48.04000 149.319
48.08000 159.583
48.12000 156.934
48.16000 147.120
48.20000 164.878
48.24000 153.586
48.28000 166.176
48.32000 162.835
48.36000 156.337
48.40000 152.103
48.44000 160.345
48.48000 154.511
48.52000 163.611
48.56000 163.964
48.60000 153.869
48.64000 157.626
48.68000 147.227
48.72000 159.264
48.76000 161.044
48.80000 157.760
48.84000 149.781
48.88000 148.757
48.92000 151.442
48.96000 154.817
49.00000 158.955
49.04000 157.714
49.08000 161.986
49.12000 158.860
49.16000 165.184
49.20000 148.617
49.24000 148.370
49.28000 142.944
49.32000 159.883
49.36000 148.174
49.40000 151.016
49.44000 155.675
49.48000 156.602
49.52000 142.267
49.56000 141.778
49.60000 157.399
49.64000 143.125
49.68000 158.722
49.72000 147.897
49.76000 152.594
49.80000 139.028
49.84000 144.259
49.88000 146.539
49.92000 162.637
49.96000 149.900
50.00000 149.238
50.04000 152.447
50.08000 145.382
50.12000 143.235
50.16000 147.301
50.20000 146.007
50.24000 156.014
50.28000 143.178
50.32000 141.256
50.36000 160.438
50.40000 164.059
50.44000 154.484
50.48000 162.170
50.52000 168.029
50.56000 163.044
50.60000 166.990
50.64000 163.433
50.68000 167.173
50.72000 156.630
50.76000 169.637
50.80000 178.991
50.84000 181.288
50.88000 161.776
50.92000 168.897
50.96000 157.240
51.00000 148.002
51.04000 155.962
51.08000 145.885
51.12000 143.641
51.16000 143.507
51.20000 151.922
51.24000 150.587
51.28000 153.836
51.32000 140.202
51.36000 143.261
51.40000 144.635
51.44000 144.405
51.48000 139.969
51.52000 135.640
51.56000 140.916
51.60000 143.631
51.64000 139.402
51.68000 131.554
51.72000 136.672
51.76000 143.562
51.80000 137.279
51.84000 143.108
51.88000 132.302
51.92000 126.698
51.96000 139.877
52.00000 141.421
52.04000 142.397
52.08000 138.486
52.12000 141.391
52.16000 137.135
52.20000 138.604
52.24000 138.440
52.28000 146.798
52.32000 151.410
52.36000 132.568
52.40000 136.523
52.44000 137.628
52.48000 134.641
52.52000 151.002
52.56000 138.341
52.60000 139.196
52.64000 133.460
52.68000 133.386
52.72000 130.962
52.76000 135.630
52.80000 130.662
52.84000 133.736
52.88000 134.292
52.92000 129.960
52.96000 138.653
53.00000 138.696
53.04000 138.132
53.08000 139.143
53.12000 157.575
53.16000 153.946
53.20000 152.188
53.24000 146.979
53.28000 145.365
53.32000 152.775
53.36000 153.139
53.40000 147.132
53.44000 167.120
53.48000 151.204
53.52000 148.531
53.56000 147.244
53.60000 152.142
53.64000 141.008
53.68000 143.254
53.72000 133.753
53.76000 164.053
53.80000 140.012
53.84000 134.775
53.88000 141.891
53.92000 142.108
53.96000 146.723
54.00000 135.217
54.04000 136.607
54.08000 146.873
54.12000 141.347
54.16000 127.976
54.20000 128.434
54.24000 140.627
54.28000 138.566
54.32000 139.684
54.36000 134.407
54.40000 133.135
54.44000 137.326
54.48000 132.157
54.52000 132.116
54.56000 138.642
54.60000 132.658
54.64000 131.148
54.68000 139.551
54.72000 135.092
54.76000 148.689
54.80000 133.896
54.84000 134.225
54.88000 152.777
54.92000 137.448
54.96000 140.222
55.00000 140.405
55.04000 144.659
55.08000 143.241
55.12000 156.090
55.16000 151.136
55.20000 149.591
55.24000 148.698
55.28000 148.607
55.32000 161.036
55.36000 158.404
55.40000 159.309
55.44000 177.056
55.48000 193.805
55.52000 206.183
55.56000 230.195
55.60000 258.845
55.64000 279.133
55.68000 326.611
55.72000 361.249
55.76000 441.014
55.80000 497.248
55.84000 522.758
55.88000 569.689
55.92000 602.678
55.96000 609.698
56.00000 581.813
56.04000 584.448
56.08000 526.699
56.12000 451.621
56.16000 395.643
56.20000 359.498
56.24000 308.665
56.28000 273.496
56.32000 239.410
56.36000 210.273
56.40000 194.917
56.44000 176.548
56.48000 161.085
56.52000 152.175
56.56000 153.394
56.60000 130.943
56.64000 140.643
56.68000 150.254
56.72000 139.689
56.76000 147.210
56.80000 131.369
56.84000 118.594
56.88000 137.273
56.92000 140.873
56.96000 134.113
57.00000 124.937
57.04000 123.412
57.08000 120.910
57.12000 120.303
57.16000 126.286
57.20000 121.231
57.24000 121.688
57.28000 124.509
57.32000 128.416
57.36000 124.649
57.40000 125.188
57.44000 134.326
57.48000 122.522
57.52000 133.378
57.56000 129.600
57.60000 127.984
57.64000 126.328
57.68000 123.647
57.72000 123.489
57.76000 121.285
57.80000 128.179
57.84000 117.091
57.88000 127.334
57.92000 131.184
57.96000 122.140
58.00000 122.464
58.04000 132.781
58.08000 120.278
58.12000 122.392
58.16000 122.430
58.20000 125.992
58.24000 111.715
58.28000 119.584
58.32000 112.699
58.36000 112.108
58.40000 115.592
58.44000 120.878
58.48000 123.532
58.52000 121.135
58.56000 116.058
58.60000 121.880
58.64000 121.134
58.68000 115.365
58.72000 113.728
58.76000 112.679
58.80000 119.152
58.84000 111.077
58.88000 120.049
58.92000 111.499
58.96000 125.281
59.00000 111.712
59.04000 120.812
59.08000 125.426
59.12000 121.679
59.16000 114.622
59.20000 111.847
59.24000 113.228
59.28000 125.739
59.32000 125.303
59.36000 117.226
59.40000 122.067
59.44000 113.884
59.48000 120.082
59.52000 116.224
59.56000 113.359
59.60000 117.514
59.64000 123.693
59.68000 110.591
59.72000 119.334
59.76000 119.886
59.80000 107.244
59.84000 108.100
59.88000 118.111
59.92000 117.618
59.96000 122.719
60.00000 117.997
60.04000 122.983
60.08000 115.500
60.12000 120.212
60.16000 118.844
60.20000 116.152
60.24000 116.722
60.28000 122.867
60.32000 118.468
60.36000 108.677
60.40000 115.695
60.44000 113.596
60.48000 108.747
60.52000 119.478
60.56000 114.747
60.60000 118.835
60.64000 118.652
60.68000 122.047
60.72000 110.599
60.76000 119.123
60.80000 114.605
60.84000 127.056
60.88000 118.636
60.92000 121.377
60.96000 109.186
61.00000 113.422
61.04000 125.406
61.08000 126.245
61.12000 122.851
61.16000 121.595
61.20000 114.132
61.24000 122.356
61.28000 116.161
61.32000 113.255
61.36000 120.451
61.40000 129.832
61.44000 130.620
61.48000 124.611
61.52000 146.413
61.56000 200.428
61.60000 238.746
61.64000 268.055
61.68000 275.357
61.72000 272.834
61.76000 263.541
61.80000 215.742
61.84000 170.154
61.88000 133.148
61.92000 125.154
61.96000 132.306
62.00000 125.705
62.04000 122.766
62.08000 121.331
62.12000 136.249
62.16000 132.919
62.20000 131.709
62.24000 130.383
62.28000 126.172
62.32000 128.764
62.36000 127.363
62.40000 122.075
62.44000 126.397
62.48000 119.981
62.52000 117.548
62.56000 128.755
62.60000 131.509
62.64000 124.900
62.68000 135.188
62.72000 134.653
62.76000 129.951
62.80000 121.905
62.84000 116.118
62.88000 137.361
62.92000 128.826
62.96000 128.796
63.00000 124.270
63.04000 126.721
63.08000 133.077
63.12000 124.594
63.16000 134.850
63.20000 130.605
63.24000 130.839
63.28000 125.467
63.32000 136.557
63.36000 122.954
63.40000 135.332
63.44000 126.110
63.48000 137.814
63.52000 139.121
63.56000 135.300
63.60000 138.054
63.64000 130.993
63.68000 131.695
63.72000 137.148
63.76000 140.430
63.80000 145.101
63.84000 136.833
63.88000 143.082
63.92000 127.733
63.96000 145.311
64.00000 145.135
64.04000 137.276
64.08000 140.994
64.12000 146.478
64.16000 142.473
64.20000 147.466
64.24000 142.297
64.28000 148.996
64.32000 151.951
64.36000 157.923
64.40000 149.861
64.44000 150.587
64.48000 160.798
64.52000 156.500
64.56000 155.374
64.60000 155.102
64.64000 151.556
64.68000 148.882
64.72000 165.128
64.76000 157.549
64.80000 160.860
64.84000 171.070
64.88000 185.031
64.92000 177.722
64.96000 185.065
65.00000 170.704
65.04000 189.995
65.08000 191.824
65.12000 192.694
65.16000 224.993
65.20000 214.437
65.24000 212.368
65.28000 216.987
65.32000 245.254
65.36000 250.370
65.40000 246.400
65.44000 279.303
65.48000 282.183
65.52000 301.653
65.56000 308.037
65.60000 371.003
65.64000 421.458
65.68000 565.816
65.72000 887.247
65.76000 1374.284
65.80000 1732.961
65.84000 1893.816
65.88000 1916.724
65.92000 1846.212
65.96000 1497.343
66.00000 985.840
66.04000 642.094
66.08000 454.572
66.12000 387.897
66.16000 368.338
66.20000 352.808
66.24000 385.195
66.28000 440.217
66.32000 545.864
66.36000 605.553
66.40000 612.281
66.44000 617.304
66.48000 581.661
66.52000 525.951
66.56000 440.905
66.60000 393.308
66.64000 357.407
66.68000 345.868
66.72000 359.019
66.76000 348.181
66.80000 345.724
66.84000 350.818
66.88000 350.831
66.92000 352.290
66.96000 363.203
67.00000 357.203
67.04000 370.929
67.08000 371.730
67.12000 391.778
67.16000 381.237
67.20000 376.284
67.24000 390.268
67.28000 383.055
67.32000 390.363
67.36000 381.071
67.40000 398.881
67.44000 399.906
67.48000 409.763
67.52000 423.188
67.56000 424.145
67.60000 418.702
67.64000 424.202
67.68000 440.564
67.72000 440.059
67.76000 434.844
67.80000 457.498
67.84000 472.725
67.88000 470.696
67.92000 475.177
67.96000 488.691
68.00000 496.217
68.04000 487.682
68.08000 505.212
68.12000 524.016
68.16000 520.641
68.20000 547.828
68.24000 541.095
68.28000 555.160
68.32000 571.534
68.36000 586.489
68.40000 606.263
68.44000 631.941
68.48000 662.104
68.52000 669.391
68.56000 729.501
68.60000 796.335
68.64000 960.751
68.68000 1092.524
68.72000 1238.225
68.76000 1412.214
68.80000 1596.618
68.84000 1795.424
68.88000 2230.148
68.92000 3280.243
68.96000 9196.694
69.00000 21067.191
69.04000 33353.422
69.08000 39851.707
69.12000 42424.047
69.16000 44963.879
69.20000 44853.344
69.24000 35797.371
69.28000 26617.547
69.32000 21846.793
69.36000 20308.711
69.40000 16843.195
69.44000 10511.875
69.48000 4716.650
69.52000 2094.682
69.56000 1280.157
69.60000 1026.013
69.64000 890.923
69.68000 772.960
69.72000 689.747
69.76000 680.976
69.80000 615.020
69.84000 605.393
69.88000 542.635
69.92000 526.022
69.96000 506.696
70.00000 498.709