File: XRD/XRD/07-10-2025 Dep 6/XY Data/BTO_Mapping_Theta2Theta_07-10-2025_001_33_-39-126_8-316.xy
20.00000 481.341
20.04000 458.988
20.08000 473.252
20.12000 453.621
20.16000 474.636
20.20000 444.028
20.24000 466.475
20.28000 451.640
20.32000 484.107
20.36000 467.368
20.40000 455.994
20.44000 468.198
20.48000 467.596
20.52000 457.514
20.56000 481.254
20.60000 448.642
20.64000 474.356
20.68000 467.519
20.72000 468.721
20.76000 462.512
20.80000 472.558
20.84000 477.447
20.88000 468.603
20.92000 476.248
20.96000 465.100
21.00000 456.005
21.04000 489.752
21.08000 444.125
21.12000 474.658
21.16000 472.153
21.20000 464.355
21.24000 459.090
21.28000 459.268
21.32000 474.766
21.36000 484.242
21.40000 473.245
21.44000 463.308
21.48000 467.248
21.52000 468.367
21.56000 479.703
21.60000 477.373
21.64000 479.815
21.68000 519.391
21.72000 537.328
21.76000 557.643
21.80000 592.305
21.84000 644.464
21.88000 668.282
21.92000 732.736
21.96000 802.432
22.00000 791.999
22.04000 787.791
22.08000 762.800
22.12000 709.733
22.16000 667.286
22.20000 628.975
22.24000 582.733
22.28000 550.671
22.32000 520.296
22.36000 504.179
22.40000 514.662
22.44000 480.618
22.48000 493.426
22.52000 461.161
22.56000 444.326
22.60000 432.581
22.64000 446.110
22.68000 438.493
22.72000 429.297
22.76000 435.919
22.80000 412.731
22.84000 423.089
22.88000 423.930
22.92000 417.140
22.96000 433.397
23.00000 439.917
23.04000 441.958
23.08000 442.741
23.12000 403.088
23.16000 427.817
23.20000 428.238
23.24000 424.327
23.28000 409.027
23.32000 425.056
23.36000 424.196
23.40000 420.680
23.44000 443.879
23.48000 425.286
23.52000 429.105
23.56000 429.703
23.60000 426.396
23.64000 405.866
23.68000 413.008
23.72000 413.060
23.76000 419.145
23.80000 408.407
23.84000 403.369
23.88000 420.240
23.92000 417.089
23.96000 412.412
24.00000 398.706
24.04000 406.521
24.08000 414.606
24.12000 400.801
24.16000 422.271
24.20000 415.318
24.24000 412.023
24.28000 416.378
24.32000 415.734
24.36000 402.002
24.40000 417.144
24.44000 403.129
24.48000 382.876
24.52000 411.353
24.56000 414.381
24.60000 396.950
24.64000 401.766
24.68000 410.945
24.72000 414.079
24.76000 401.314
24.80000 406.748
24.84000 415.793
24.88000 405.559
24.92000 404.026
24.96000 407.194
25.00000 406.050
25.04000 390.337
25.08000 378.557
25.12000 401.930
25.16000 400.345
25.20000 394.487
25.24000 386.084
25.28000 379.661
25.32000 404.816
25.36000 379.655
25.40000 379.839
25.44000 401.519
25.48000 388.824
25.52000 401.203
25.56000 386.293
25.60000 382.641
25.64000 388.532
25.68000 382.891
25.72000 397.581
25.76000 410.092
25.80000 410.037
25.84000 376.357
25.88000 389.207
25.92000 377.298
25.96000 380.033
26.00000 391.474
26.04000 373.430
26.08000 394.843
26.12000 377.404
26.16000 366.133
26.20000 370.473
26.24000 387.597
26.28000 377.873
26.32000 387.499
26.36000 390.586
26.40000 370.811
26.44000 383.628
26.48000 381.423
26.52000 389.132
26.56000 392.449
26.60000 379.517
26.64000 387.228
26.68000 368.794
26.72000 375.762
26.76000 380.628
26.80000 377.051
26.84000 381.881
26.88000 373.536
26.92000 365.171
26.96000 379.101
27.00000 369.101
27.04000 378.451
27.08000 372.516
27.12000 365.036
27.16000 364.879
27.20000 378.468
27.24000 359.789
27.28000 384.050
27.32000 371.957
27.36000 375.736
27.40000 363.169
27.44000 358.727
27.48000 368.905
27.52000 356.954
27.56000 370.414
27.60000 357.721
27.64000 370.942
27.68000 351.859
27.72000 367.379
27.76000 348.303
27.80000 358.639
27.84000 352.232
27.88000 360.934
27.92000 379.615
27.96000 374.975
28.00000 351.545
28.04000 370.517
28.08000 360.896
28.12000 371.151
28.16000 369.011
28.20000 381.326
28.24000 361.727
28.28000 371.708
28.32000 366.090
28.36000 361.498
28.40000 358.526
28.44000 360.820
28.48000 360.517
28.52000 364.932
28.56000 354.160
28.60000 344.893
28.64000 349.120
28.68000 349.410
28.72000 344.762
28.76000 351.718
28.80000 361.200
28.84000 358.319
28.88000 347.009
28.92000 356.719
28.96000 350.303
29.00000 353.388
29.04000 367.773
29.08000 362.696
29.12000 356.646
29.16000 347.253
29.20000 358.177
29.24000 357.735
29.28000 352.033
29.32000 359.903
29.36000 356.541
29.40000 344.017
29.44000 337.469
29.48000 352.782
29.52000 343.091
29.56000 357.727
29.60000 361.002
29.64000 367.412
29.68000 361.836
29.72000 371.669
29.76000 387.418
29.80000 382.985
29.84000 406.647
29.88000 450.535
29.92000 440.364
29.96000 456.689
30.00000 463.937
30.04000 471.373
30.08000 459.639
30.12000 452.686
30.16000 425.456
30.20000 422.858
30.24000 404.617
30.28000 411.209
30.32000 391.544
30.36000 380.295
30.40000 370.488
30.44000 375.732
30.48000 390.873
30.52000 386.137
30.56000 381.563
30.60000 378.205
30.64000 387.304
30.68000 401.168
30.72000 395.196
30.76000 403.380
30.80000 401.961
30.84000 447.110
30.88000 477.089
30.92000 506.442
30.96000 577.874
31.00000 672.362
31.04000 820.201
31.08000 1060.058
31.12000 1364.453
31.16000 1763.925
31.20000 2189.325
31.24000 2574.729
31.28000 2951.292
31.32000 3101.261
31.36000 3187.757
31.40000 2965.929
31.44000 2655.916
31.48000 2252.963
31.52000 1818.819
31.56000 1436.655
31.60000 1108.829
31.64000 843.390
31.68000 703.491
31.72000 571.492
31.76000 479.309
31.80000 450.505
31.84000 422.220
31.88000 394.037
31.92000 396.748
31.96000 362.227
32.00000 359.042
32.04000 355.993
32.08000 344.692
32.12000 343.598
32.16000 318.043
32.20000 330.968
32.24000 327.655
32.28000 320.043
32.32000 317.148
32.36000 336.303
32.40000 329.712
32.44000 321.835
32.48000 326.142
32.52000 320.654
32.56000 313.209
32.60000 315.215
32.64000 322.492
32.68000 314.065
32.72000 318.690
32.76000 326.559
32.80000 369.622
32.84000 420.423
32.88000 524.992
32.92000 566.618
32.96000 615.747
33.00000 604.536
33.04000 546.796
33.08000 459.021
33.12000 404.286
33.16000 343.251
33.20000 317.369
33.24000 297.174
33.28000 291.769
33.32000 291.384
33.36000 303.623
33.40000 294.768
33.44000 305.424
33.48000 292.688
33.52000 283.894
33.56000 293.254
33.60000 289.333
33.64000 299.511
33.68000 294.889
33.72000 291.375
33.76000 292.291
33.80000 285.097
33.84000 307.331
33.88000 286.964
33.92000 289.205
33.96000 267.211
34.00000 291.294
34.04000 272.940
34.08000 289.736
34.12000 272.398
34.16000 278.924
34.20000 277.621
34.24000 285.000
34.28000 286.481
34.32000 279.011
34.36000 282.108
34.40000 269.284
34.44000 283.425
34.48000 271.636
34.52000 266.578
34.56000 270.046
34.60000 287.321
34.64000 268.985
34.68000 273.584
34.72000 261.996
34.76000 273.891
34.80000 280.568
34.84000 278.101
34.88000 272.480
34.92000 265.070
34.96000 271.186
35.00000 259.828
35.04000 265.464
35.08000 270.982
35.12000 257.800
35.16000 263.549
35.20000 264.707
35.24000 271.562
35.28000 276.320
35.32000 268.688
35.36000 280.494
35.40000 266.452
35.44000 261.035
35.48000 249.930
35.52000 257.077
35.56000 246.759
35.60000 271.489
35.64000 265.068
35.68000 243.689
35.72000 246.315
35.76000 264.217
35.80000 279.135
35.84000 262.320
35.88000 253.369
35.92000 266.149
35.96000 271.377
36.00000 262.193
36.04000 265.691
36.08000 255.842
36.12000 248.624
36.16000 242.478
36.20000 256.385
36.24000 252.398
36.28000 256.762
36.32000 263.583
36.36000 262.316
36.40000 259.210
36.44000 247.720
36.48000 247.498
36.52000 253.312
36.56000 254.708
36.60000 256.438
36.64000 249.847
36.68000 263.739
36.72000 247.031
36.76000 256.008
36.80000 278.515
36.84000 245.749
36.88000 257.222
36.92000 260.347
36.96000 261.835
37.00000 274.725
37.04000 256.520
37.08000 254.059
37.12000 252.842
37.16000 262.407
37.20000 247.589
37.24000 255.019
37.28000 253.909
37.32000 248.493
37.36000 242.053
37.40000 253.281
37.44000 255.037
37.48000 254.421
37.52000 243.726
37.56000 244.503
37.60000 248.914
37.64000 246.684
37.68000 233.285
37.72000 244.543
37.76000 247.602
37.80000 245.878
37.84000 242.965
37.88000 255.482
37.92000 242.637
37.96000 244.382
38.00000 244.868
38.04000 244.170
38.08000 236.186
38.12000 249.891
38.16000 252.179
38.20000 260.291
38.24000 260.601
38.28000 268.229
38.32000 295.352
38.36000 307.917
38.40000 324.014
38.44000 362.408
38.48000 382.843
38.52000 432.156
38.56000 462.271
38.60000 489.751
38.64000 498.374
38.68000 516.685
38.72000 500.816
38.76000 479.832
38.80000 458.782
38.84000 392.246
38.88000 381.597
38.92000 347.409
38.96000 322.234
39.00000 276.997
39.04000 257.376
39.08000 245.184
39.12000 244.400
39.16000 233.058
39.20000 228.989
39.24000 252.778
39.28000 248.992
39.32000 239.059
39.36000 222.006
39.40000 218.188
39.44000 225.684
39.48000 227.086
39.52000 231.296
39.56000 231.514
39.60000 231.628
39.64000 229.023
39.68000 229.192
39.72000 210.113
39.76000 222.769
39.80000 222.023
39.84000 226.485
39.88000 216.225
39.92000 238.409
39.96000 218.153
40.00000 222.310
40.04000 217.202
40.08000 220.958
40.12000 219.539
40.16000 213.423
40.20000 229.969
40.24000 211.567
40.28000 225.374
40.32000 219.218
40.36000 205.988
40.40000 214.112
40.44000 226.178
40.48000 211.963
40.52000 215.999
40.56000 213.883
40.60000 203.557
40.64000 205.321
40.68000 212.342
40.72000 220.402
40.76000 215.343
40.80000 204.770
40.84000 206.767
40.88000 212.216
40.92000 204.933
40.96000 211.177
41.00000 210.824
41.04000 210.313
41.08000 196.714
41.12000 209.132
41.16000 215.785
41.20000 202.163
41.24000 203.914
41.28000 216.133
41.32000 202.019
41.36000 207.176
41.40000 194.935
41.44000 197.852
41.48000 213.816
41.52000 208.989
41.56000 212.703
41.60000 206.818
41.64000 200.478
41.68000 213.287
41.72000 212.733
41.76000 199.015
41.80000 196.325
41.84000 192.735
41.88000 195.069
41.92000 204.030
41.96000 200.888
42.00000 204.530
42.04000 201.766
42.08000 197.487
42.12000 196.308
42.16000 190.619
42.20000 199.699
42.24000 182.494
42.28000 205.645
42.32000 204.169
42.36000 185.839
42.40000 206.879
42.44000 208.125
42.48000 207.157
42.52000 204.314
42.56000 194.349
42.60000 199.873
42.64000 196.893
42.68000 196.433
42.72000 191.862
42.76000 198.595
42.80000 202.322
42.84000 196.148
42.88000 194.615
42.92000 209.356
42.96000 198.529
43.00000 214.084
43.04000 209.719
43.08000 207.226
43.12000 206.316
43.16000 203.291
43.20000 205.974
43.24000 192.921
43.28000 192.092
43.32000 194.813
43.36000 185.350
43.40000 196.315
43.44000 192.960
43.48000 200.558
43.52000 184.962
43.56000 179.350
43.60000 199.892
43.64000 195.358
43.68000 188.502
43.72000 192.589
43.76000 196.914
43.80000 189.022
43.84000 199.830
43.88000 188.865
43.92000 202.343
43.96000 191.992
44.00000 197.100
44.04000 205.992
44.08000 208.161
44.12000 202.358
44.16000 198.075
44.20000 181.234
44.24000 211.016
44.28000 214.530
44.32000 209.716
44.36000 204.804
44.40000 217.853
44.44000 215.312
44.48000 223.779
44.52000 237.971
44.56000 240.130
44.60000 261.785
44.64000 277.357
44.68000 287.626
44.72000 323.727
44.76000 351.463
44.80000 387.732
44.84000 427.518
44.88000 444.541
44.92000 447.200
44.96000 437.082
45.00000 434.490
45.04000 410.787
45.08000 416.192
45.12000 370.139
45.16000 357.539
45.20000 333.920
45.24000 328.884
45.28000 304.884
45.32000 284.842
45.36000 282.971
45.40000 260.905
45.44000 245.904
45.48000 237.673
45.52000 226.535
45.56000 216.939
45.60000 214.267
45.64000 213.727
45.68000 205.686
45.72000 200.810
45.76000 186.525
45.80000 207.239
45.84000 194.949
45.88000 192.016
45.92000 181.110
45.96000 180.139
46.00000 191.050
46.04000 183.995
46.08000 173.984
46.12000 188.783
46.16000 176.494
46.20000 168.816
46.24000 173.695
46.28000 173.253
46.32000 182.915
46.36000 177.391
46.40000 167.407
46.44000 170.790
46.48000 173.457
46.52000 161.808
46.56000 165.168
46.60000 161.983
46.64000 172.909
46.68000 166.862
46.72000 170.247
46.76000 165.408
46.80000 170.042
46.84000 171.393
46.88000 168.356
46.92000 170.691
46.96000 161.049
47.00000 166.261
47.04000 170.794
47.08000 169.580
47.12000 160.113
47.16000 156.935
47.20000 158.271
47.24000 159.236
47.28000 165.223
47.32000 163.589
47.36000 162.241
47.40000 155.355
47.44000 164.613
47.48000 157.830
47.52000 151.360
47.56000 164.953
47.60000 158.920
47.64000 170.327
47.68000 151.962
47.72000 169.204
47.76000 159.133
47.80000 158.893
47.84000 155.303
47.88000 151.424
47.92000 158.122
47.96000 148.743
48.00000 153.039
48.04000 157.602
48.08000 155.471
48.12000 164.133
48.16000 160.426
48.20000 163.860
48.24000 163.219
48.28000 158.210
48.32000 152.482
48.36000 165.301
48.40000 153.828
48.44000 156.078
48.48000 153.137
48.52000 161.314
48.56000 157.875
48.60000 155.265
48.64000 161.214
48.68000 159.672
48.72000 165.673
48.76000 160.794
48.80000 156.685
48.84000 155.481
48.88000 157.900
48.92000 165.341
48.96000 157.388
49.00000 151.249
49.04000 149.476
49.08000 157.069
49.12000 153.930
49.16000 157.103
49.20000 159.936
49.24000 154.386
49.28000 149.827
49.32000 161.231
49.36000 152.736
49.40000 146.383
49.44000 156.332
49.48000 158.155
49.52000 154.504
49.56000 142.162
49.60000 144.312
49.64000 149.330
49.68000 157.081
49.72000 156.420
49.76000 154.249
49.80000 155.244
49.84000 161.542
49.88000 155.578
49.92000 154.393
49.96000 151.131
50.00000 162.396
50.04000 164.329
50.08000 159.511
50.12000 161.298
50.16000 167.623
50.20000 174.848
50.24000 165.676
50.28000 178.567
50.32000 201.383
50.36000 191.119
50.40000 201.375
50.44000 206.732
50.48000 209.146
50.52000 244.609
50.56000 241.368
50.60000 238.497
50.64000 248.173
50.68000 238.064
50.72000 227.322
50.76000 217.649
50.80000 211.750
50.84000 212.828
50.88000 191.764
50.92000 184.213
50.96000 166.258
51.00000 169.943
51.04000 167.850
51.08000 168.413
51.12000 156.412
51.16000 150.304
51.20000 152.381
51.24000 158.375
51.28000 149.972
51.32000 144.235
51.36000 155.645
51.40000 152.951
51.44000 148.889
51.48000 144.601
51.52000 147.413
51.56000 141.786
51.60000 140.564
51.64000 148.285
51.68000 132.896
51.72000 142.358
51.76000 131.287
51.80000 146.433
51.84000 146.562
51.88000 138.776
51.92000 140.002
51.96000 132.426
52.00000 144.003
52.04000 139.403
52.08000 127.879
52.12000 139.414
52.16000 138.293
52.20000 131.443
52.24000 139.800
52.28000 142.442
52.32000 137.621
52.36000 128.079
52.40000 133.932
52.44000 141.280
52.48000 139.223
52.52000 135.694
52.56000 141.758
52.60000 134.196
52.64000 139.749
52.68000 135.808
52.72000 140.120
52.76000 150.829
52.80000 145.364
52.84000 139.543
52.88000 133.405
52.92000 137.650
52.96000 139.204
53.00000 145.007
53.04000 143.568
53.08000 149.076
53.12000 149.651
53.16000 139.430
53.20000 143.689
53.24000 138.412
53.28000 147.345
53.32000 152.840
53.36000 142.571
53.40000 146.777
53.44000 134.389
53.48000 150.855
53.52000 151.237
53.56000 140.923
53.60000 134.012
53.64000 148.144
53.68000 143.844
53.72000 139.712
53.76000 133.006
53.80000 146.167
53.84000 139.432
53.88000 136.159
53.92000 135.565
53.96000 153.668
54.00000 140.475
54.04000 140.541
54.08000 148.061
54.12000 142.067
54.16000 145.669
54.20000 136.628
54.24000 139.859
54.28000 126.560
54.32000 136.654
54.36000 136.858
54.40000 133.226
54.44000 129.777
54.48000 141.479
54.52000 139.670
54.56000 137.291
54.60000 129.600
54.64000 130.229
54.68000 136.222
54.72000 136.501
54.76000 137.858
54.80000 139.064
54.84000 134.028
54.88000 129.071
54.92000 141.687
54.96000 138.517
55.00000 130.319
55.04000 129.658
55.08000 148.274
55.12000 142.575
55.16000 142.402
55.20000 148.235
55.24000 163.215
55.28000 164.802
55.32000 168.214
55.36000 194.399
55.40000 195.912
55.44000 225.622
55.48000 243.280
55.52000 275.017
55.56000 315.876
55.60000 337.873
55.64000 375.839
55.68000 400.787
55.72000 420.842
55.76000 444.336
55.80000 484.584
55.84000 488.492
55.88000 478.627
55.92000 486.584
55.96000 466.502
56.00000 415.977
56.04000 392.412
56.08000 350.846
56.12000 312.093
56.16000 291.612
56.20000 252.902
56.24000 230.332
56.28000 220.872
56.32000 206.970
56.36000 194.304
56.40000 167.001
56.44000 162.070
56.48000 165.439
56.52000 152.069
56.56000 145.932
56.60000 146.333
56.64000 143.637
56.68000 142.488
56.72000 141.384
56.76000 133.659
56.80000 132.271
56.84000 142.864
56.88000 118.978
56.92000 134.401
56.96000 134.336
57.00000 134.959
57.04000 130.068
57.08000 129.400
57.12000 123.964
57.16000 130.860
57.20000 121.202
57.24000 117.074
57.28000 126.893
57.32000 132.419
57.36000 127.653
57.40000 125.500
57.44000 127.357
57.48000 119.154
57.52000 119.218
57.56000 120.459
57.60000 115.671
57.64000 126.995
57.68000 111.248
57.72000 125.159
57.76000 119.004
57.80000 126.139
57.84000 129.451
57.88000 124.846
57.92000 112.544
57.96000 117.843
58.00000 125.973
58.04000 111.939
58.08000 121.548
58.12000 114.738
58.16000 123.468
58.20000 127.343
58.24000 122.577
58.28000 117.722
58.32000 121.208
58.36000 127.059
58.40000 108.304
58.44000 127.737
58.48000 118.943
58.52000 108.831
58.56000 117.007
58.60000 117.840
58.64000 113.612
58.68000 126.315
58.72000 116.509
58.76000 120.065
58.80000 119.203
58.84000 121.154
58.88000 109.897
58.92000 118.992
58.96000 115.887
59.00000 123.948
59.04000 121.276
59.08000 119.116
59.12000 109.238
59.16000 114.099
59.20000 118.738
59.24000 104.577
59.28000 120.576
59.32000 120.148
59.36000 115.299
59.40000 118.249
59.44000 108.231
59.48000 113.675
59.52000 115.341
59.56000 110.942
59.60000 115.746
59.64000 109.133
59.68000 121.337
59.72000 118.004
59.76000 111.742
59.80000 114.700
59.84000 127.475
59.88000 111.882
59.92000 115.519
59.96000 112.983
60.00000 112.771
60.04000 113.241
60.08000 104.094
60.12000 122.160
60.16000 118.621
60.20000 125.526
60.24000 116.904
60.28000 107.135
60.32000 118.345
60.36000 121.925
60.40000 125.838
60.44000 114.403
60.48000 115.671
60.52000 108.907
60.56000 112.579
60.60000 116.501
60.64000 118.855
60.68000 120.942
60.72000 128.757
60.76000 116.611
60.80000 118.929
60.84000 110.758
60.88000 116.642
60.92000 109.616
60.96000 119.647
61.00000 118.326
61.04000 111.793
61.08000 125.447
61.12000 126.775
61.16000 123.999
61.20000 123.862
61.24000 121.518
61.28000 123.536
61.32000 136.705
61.36000 124.321
61.40000 129.521
61.44000 134.215
61.48000 145.441
61.52000 189.035
61.56000 237.492
61.60000 305.486
61.64000 344.577
61.68000 348.070
61.72000 360.953
61.76000 307.020
61.80000 253.666
61.84000 184.636
61.88000 159.593
61.92000 141.117
61.96000 141.254
62.00000 127.776
62.04000 122.019
62.08000 123.121
62.12000 132.352
62.16000 141.254
62.20000 128.564
62.24000 122.251
62.28000 132.920
62.32000 130.631
62.36000 122.741
62.40000 130.225
62.44000 133.279
62.48000 136.351
62.52000 134.330
62.56000 130.769
62.60000 131.209
62.64000 137.172
62.68000 122.317
62.72000 136.855
62.76000 128.194
62.80000 120.441
62.84000 126.272
62.88000 149.746
62.92000 128.005
62.96000 142.879
63.00000 136.088
63.04000 140.658
63.08000 141.402
63.12000 133.414
63.16000 131.411
63.20000 139.063
63.24000 133.287
63.28000 131.968
63.32000 136.354
63.36000 142.959
63.40000 125.702
63.44000 141.701
63.48000 140.347
63.52000 127.436
63.56000 125.669
63.60000 145.300
63.64000 141.570
63.68000 137.308
63.72000 141.844
63.76000 142.320
63.80000 140.835
63.84000 140.963
63.88000 151.635
63.92000 145.988
63.96000 149.771
64.00000 144.654
64.04000 150.944
64.08000 149.758
64.12000 146.252
64.16000 147.419
64.20000 153.598
64.24000 154.534
64.28000 157.325
64.32000 146.762
64.36000 148.138
64.40000 155.074
64.44000 161.712
64.48000 160.532
64.52000 173.401
64.56000 161.804
64.60000 167.328
64.64000 169.988
64.68000 174.292
64.72000 175.001
64.76000 171.860
64.80000 194.234
64.84000 202.351
64.88000 199.313
64.92000 206.500
64.96000 220.093
65.00000 230.975
65.04000 236.435
65.08000 269.361
65.12000 282.236
65.16000 297.449
65.20000 301.465
65.24000 309.798
65.28000 337.619
65.32000 356.427
65.36000 382.997
65.40000 381.619
65.44000 414.302
65.48000 425.894
65.52000 434.599
65.56000 499.372
65.60000 566.512
65.64000 659.404
65.68000 885.952
65.72000 1373.224
65.76000 2038.923
65.80000 2465.637
65.84000 2649.464
65.88000 2640.734
65.92000 2461.352
65.96000 1882.983
66.00000 1230.948
66.04000 778.307
66.08000 564.154
66.12000 490.723
66.16000 451.949
66.20000 459.664
66.24000 486.351
66.28000 595.061
66.32000 686.475
66.36000 768.843
66.40000 788.051
66.44000 797.932
66.48000 744.084
66.52000 628.751
66.56000 499.095
66.60000 430.148
66.64000 421.421
66.68000 415.235
66.72000 391.561
66.76000 394.268
66.80000 392.128
66.84000 403.274
66.88000 400.121
66.92000 383.960
66.96000 412.816
67.00000 426.397
67.04000 408.097
67.08000 436.855
67.12000 429.800
67.16000 442.947
67.20000 441.829
67.24000 449.263
67.28000 454.289
67.32000 445.355
67.36000 464.686
67.40000 463.598
67.44000 464.847
67.48000 469.985
67.52000 471.123
67.56000 477.586
67.60000 493.044
67.64000 504.270
67.68000 498.212
67.72000 497.902
67.76000 500.815
67.80000 550.095
67.84000 545.145
67.88000 528.000
67.92000 562.608
67.96000 537.754
68.00000 573.368
68.04000 566.057
68.08000 555.802
68.12000 593.993
68.16000 619.527
68.20000 615.721
68.24000 631.855
68.28000 665.242
68.32000 659.796
68.36000 685.222
68.40000 713.459
68.44000 737.528
68.48000 763.983
68.52000 814.734
68.56000 891.001
68.60000 999.031
68.64000 1196.086
68.68000 1428.729
68.72000 1648.176
68.76000 1899.786
68.80000 2239.307
68.84000 2679.522
68.88000 3701.611
68.92000 6245.069
68.96000 16267.025
69.00000 32971.988
69.04000 48685.230
69.08000 56162.008
69.12000 59920.621
69.16000 62779.250
69.20000 59217.328
69.24000 47423.176
69.28000 35878.738
69.32000 30031.803
69.36000 27332.688
69.40000 21294.424
69.44000 13124.332
69.48000 5865.988
69.52000 2650.736
69.56000 1628.792
69.60000 1261.227
69.64000 1068.897
69.68000 910.262
69.72000 798.537
69.76000 726.222
69.80000 682.019
69.84000 645.423
69.88000 611.439
69.92000 577.402
69.96000 519.629
70.00000 533.387