File: XRD/XRD/07-10-2025 Dep 6/XY Data/BTO_Mapping_Theta2Theta_07-10-2025_001_14_3-090_9-511.xy
20.00000 471.529
20.04000 473.848
20.08000 456.736
20.12000 470.770
20.16000 477.730
20.20000 463.885
20.24000 471.226
20.28000 469.091
20.32000 481.189
20.36000 476.156
20.40000 457.244
20.44000 470.083
20.48000 486.261
20.52000 470.221
20.56000 470.553
20.60000 462.391
20.64000 465.131
20.68000 449.022
20.72000 456.267
20.76000 456.009
20.80000 476.766
20.84000 450.499
20.88000 459.478
20.92000 454.030
20.96000 489.949
21.00000 463.365
21.04000 458.058
21.08000 458.486
21.12000 486.838
21.16000 476.139
21.20000 459.546
21.24000 460.527
21.28000 454.417
21.32000 463.515
21.36000 458.884
21.40000 461.551
21.44000 473.567
21.48000 445.361
21.52000 450.948
21.56000 461.935
21.60000 459.016
21.64000 478.762
21.68000 465.944
21.72000 455.551
21.76000 461.676
21.80000 477.057
21.84000 485.055
21.88000 473.403
21.92000 488.342
21.96000 503.368
22.00000 515.697
22.04000 504.292
22.08000 519.636
22.12000 514.348
22.16000 505.481
22.20000 487.834
22.24000 488.689
22.28000 491.406
22.32000 476.084
22.36000 475.387
22.40000 474.500
22.44000 464.898
22.48000 448.226
22.52000 444.613
22.56000 454.403
22.60000 439.241
22.64000 443.984
22.68000 438.991
22.72000 429.811
22.76000 447.015
22.80000 418.511
22.84000 439.349
22.88000 438.542
22.92000 447.578
22.96000 443.813
23.00000 442.245
23.04000 433.630
23.08000 428.341
23.12000 436.160
23.16000 412.507
23.20000 421.187
23.24000 419.003
23.28000 434.450
23.32000 447.131
23.36000 419.658
23.40000 416.430
23.44000 426.772
23.48000 430.664
23.52000 418.309
23.56000 444.615
23.60000 441.210
23.64000 431.013
23.68000 452.970
23.72000 471.291
23.76000 441.310
23.80000 468.468
23.84000 482.183
23.88000 481.254
23.92000 477.085
23.96000 483.657
24.00000 490.742
24.04000 493.045
24.08000 480.214
24.12000 493.419
24.16000 463.912
24.20000 455.190
24.24000 443.651
24.28000 430.540
24.32000 429.135
24.36000 444.284
24.40000 416.168
24.44000 448.316
24.48000 404.857
24.52000 428.603
24.56000 418.569
24.60000 407.154
24.64000 401.361
24.68000 402.265
24.72000 414.499
24.76000 425.018
24.80000 396.695
24.84000 384.155
24.88000 402.590
24.92000 417.705
24.96000 393.073
25.00000 389.192
25.04000 411.806
25.08000 414.488
25.12000 390.707
25.16000 392.715
25.20000 372.008
25.24000 389.993
25.28000 380.922
25.32000 401.073
25.36000 401.695
25.40000 387.759
25.44000 395.888
25.48000 398.281
25.52000 387.973
25.56000 394.499
25.60000 381.527
25.64000 393.777
25.68000 388.372
25.72000 391.974
25.76000 390.788
25.80000 396.086
25.84000 385.682
25.88000 380.695
25.92000 382.175
25.96000 386.489
26.00000 383.614
26.04000 377.341
26.08000 368.670
26.12000 413.733
26.16000 403.063
26.20000 392.798
26.24000 380.312
26.28000 388.350
26.32000 402.533
26.36000 386.235
26.40000 393.940
26.44000 396.320
26.48000 403.598
26.52000 372.972
26.56000 384.148
26.60000 381.088
26.64000 365.965
26.68000 376.282
26.72000 368.367
26.76000 372.024
26.80000 370.725
26.84000 373.645
26.88000 391.717
26.92000 374.622
26.96000 372.325
27.00000 370.392
27.04000 372.042
27.08000 382.727
27.12000 374.744
27.16000 375.557
27.20000 371.016
27.24000 371.064
27.28000 359.643
27.32000 370.185
27.36000 384.899
27.40000 363.434
27.44000 375.803
27.48000 400.754
27.52000 375.664
27.56000 353.959
27.60000 367.981
27.64000 367.565
27.68000 346.717
27.72000 365.534
27.76000 357.429
27.80000 363.926
27.84000 355.491
27.88000 365.036
27.92000 360.919
27.96000 362.549
28.00000 357.180
28.04000 380.059
28.08000 362.853
28.12000 353.707
28.16000 360.163
28.20000 364.345
28.24000 374.256
28.28000 363.918
28.32000 368.457
28.36000 369.298
28.40000 352.290
28.44000 339.850
28.48000 346.320
28.52000 351.574
28.56000 367.365
28.60000 373.232
28.64000 366.774
28.68000 357.745
28.72000 358.734
28.76000 348.785
28.80000 346.396
28.84000 339.382
28.88000 353.494
28.92000 356.469
28.96000 352.652
29.00000 345.429
29.04000 364.193
29.08000 358.356
29.12000 342.244
29.16000 356.268
29.20000 349.436
29.24000 350.896
29.28000 340.213
29.32000 360.420
29.36000 347.203
29.40000 351.297
29.44000 356.145
29.48000 354.018
29.52000 350.648
29.56000 332.459
29.60000 345.771
29.64000 361.370
29.68000 354.409
29.72000 350.222
29.76000 356.230
29.80000 346.470
29.84000 373.606
29.88000 396.773
29.92000 375.369
29.96000 386.287
30.00000 371.263
30.04000 373.974
30.08000 387.266
30.12000 384.203
30.16000 374.114
30.20000 381.500
30.24000 365.542
30.28000 353.356
30.32000 362.492
30.36000 359.756
30.40000 358.282
30.44000 350.293
30.48000 348.911
30.52000 363.338
30.56000 344.869
30.60000 369.029
30.64000 376.390
30.68000 372.186
30.72000 354.294
30.76000 372.383
30.80000 373.106
30.84000 379.345
30.88000 379.781
30.92000 388.158
30.96000 424.340
31.00000 443.482
31.04000 488.471
31.08000 510.754
31.12000 590.158
31.16000 681.022
31.20000 777.920
31.24000 901.188
31.28000 1007.802
31.32000 1137.774
31.36000 1183.342
31.40000 1179.971
31.44000 1187.030
31.48000 1144.317
31.52000 1001.643
31.56000 863.035
31.60000 731.739
31.64000 638.734
31.68000 549.973
31.72000 463.922
31.76000 443.437
31.80000 420.509
31.84000 409.964
31.88000 381.727
31.92000 367.065
31.96000 352.155
32.00000 344.280
32.04000 345.126
32.08000 345.835
32.12000 335.348
32.16000 338.818
32.20000 337.233
32.24000 331.701
32.28000 325.159
32.32000 326.893
32.36000 329.619
32.40000 333.971
32.44000 335.551
32.48000 317.848
32.52000 319.122
32.56000 343.359
32.60000 313.677
32.64000 330.485
32.68000 301.471
32.72000 318.876
32.76000 321.598
32.80000 333.843
32.84000 392.914
32.88000 447.798
32.92000 494.943
32.96000 519.156
33.00000 536.359
33.04000 513.936
33.08000 452.097
33.12000 369.265
33.16000 351.564
33.20000 310.990
33.24000 292.588
33.28000 285.929
33.32000 285.905
33.36000 299.770
33.40000 314.640
33.44000 287.357
33.48000 276.031
33.52000 301.256
33.56000 291.956
33.60000 299.675
33.64000 274.004
33.68000 288.128
33.72000 276.553
33.76000 286.514
33.80000 300.368
33.84000 304.471
33.88000 300.457
33.92000 321.927
33.96000 307.908
34.00000 312.224
34.04000 307.042
34.08000 308.130
34.12000 317.400
34.16000 308.318
34.20000 335.710
34.24000 336.697
34.28000 321.427
34.32000 340.247
34.36000 339.474
34.40000 329.651
34.44000 325.363
34.48000 326.539
34.52000 327.163
34.56000 313.681
34.60000 310.197
34.64000 314.352
34.68000 302.409
34.72000 297.857
34.76000 283.128
34.80000 300.200
34.84000 280.652
34.88000 289.419
34.92000 276.377
34.96000 285.008
35.00000 268.383
35.04000 288.377
35.08000 265.801
35.12000 281.491
35.16000 269.177
35.20000 266.849
35.24000 260.347
35.28000 262.485
35.32000 258.037
35.36000 245.843
35.40000 268.493
35.44000 258.914
35.48000 246.647
35.52000 264.142
35.56000 255.774
35.60000 271.155
35.64000 277.300
35.68000 267.679
35.72000 274.224
35.76000 270.567
35.80000 264.256
35.84000 258.743
35.88000 271.832
35.92000 267.512
35.96000 245.982
36.00000 250.800
36.04000 255.259
36.08000 248.813
36.12000 259.391
36.16000 255.178
36.20000 258.823
36.24000 252.632
36.28000 254.000
36.32000 253.516
36.36000 248.393
36.40000 259.422
36.44000 248.880
36.48000 256.640
36.52000 233.945
36.56000 251.757
36.60000 269.601
36.64000 255.999
36.68000 248.555
36.72000 255.425
36.76000 258.750
36.80000 273.830
36.84000 265.193
36.88000 248.825
36.92000 265.682
36.96000 269.132
37.00000 268.326
37.04000 268.724
37.08000 268.405
37.12000 259.541
37.16000 261.497
37.20000 253.925
37.24000 286.226
37.28000 265.761
37.32000 251.627
37.36000 260.282
37.40000 257.877
37.44000 237.927
37.48000 248.078
37.52000 251.737
37.56000 239.684
37.60000 245.267
37.64000 251.511
37.68000 242.003
37.72000 244.783
37.76000 249.142
37.80000 251.933
37.84000 247.692
37.88000 264.130
37.92000 250.285
37.96000 263.914
38.00000 241.852
38.04000 244.178
38.08000 246.768
38.12000 253.249
38.16000 265.973
38.20000 236.879
38.24000 260.385
38.28000 274.958
38.32000 279.936
38.36000 284.416
38.40000 306.874
38.44000 341.904
38.48000 385.883
38.52000 468.927
38.56000 548.781
38.60000 637.218
38.64000 766.071
38.68000 847.923
38.72000 859.042
38.76000 855.782
38.80000 775.029
38.84000 712.757
38.88000 615.944
38.92000 508.124
38.96000 424.867
39.00000 353.949
39.04000 305.435
39.08000 285.434
39.12000 266.397
39.16000 245.765
39.20000 242.778
39.24000 243.318
39.28000 254.282
39.32000 239.757
39.36000 224.723
39.40000 224.491
39.44000 230.295
39.48000 230.030
39.52000 249.393
39.56000 234.107
39.60000 228.778
39.64000 236.317
39.68000 224.191
39.72000 224.495
39.76000 227.154
39.80000 239.838
39.84000 213.447
39.88000 229.405
39.92000 234.691
39.96000 225.828
40.00000 227.115
40.04000 219.148
40.08000 223.484
40.12000 232.683
40.16000 213.278
40.20000 215.559
40.24000 220.658
40.28000 211.976
40.32000 220.597
40.36000 223.983
40.40000 213.291
40.44000 216.493
40.48000 202.160
40.52000 210.357
40.56000 209.812
40.60000 207.087
40.64000 215.927
40.68000 221.351
40.72000 206.029
40.76000 219.002
40.80000 216.275
40.84000 213.154
40.88000 205.083
40.92000 216.026
40.96000 214.004
41.00000 212.387
41.04000 203.703
41.08000 199.555
41.12000 213.089
41.16000 204.366
41.20000 217.360
41.24000 205.789
41.28000 207.495
41.32000 199.346
41.36000 195.607
41.40000 196.473
41.44000 209.315
41.48000 204.015
41.52000 205.943
41.56000 215.615
41.60000 201.702
41.64000 210.804
41.68000 204.415
41.72000 189.335
41.76000 201.629
41.80000 212.639
41.84000 219.733
41.88000 217.469
41.92000 210.394
41.96000 217.831
42.00000 218.973
42.04000 215.246
42.08000 197.770
42.12000 221.868
42.16000 206.358
42.20000 204.872
42.24000 202.128
42.28000 211.547
42.32000 210.160
42.36000 215.619
42.40000 208.052
42.44000 209.472
42.48000 221.693
42.52000 198.101
42.56000 207.693
42.60000 212.390
42.64000 207.416
42.68000 202.329
42.72000 208.789
42.76000 191.386
42.80000 198.471
42.84000 209.283
42.88000 198.012
42.92000 201.966
42.96000 195.004
43.00000 196.368
43.04000 186.427
43.08000 193.721
43.12000 187.537
43.16000 184.124
43.20000 194.383
43.24000 192.999
43.28000 206.424
43.32000 195.426
43.36000 186.549
43.40000 197.500
43.44000 186.465
43.48000 186.433
43.52000 187.430
43.56000 186.290
43.60000 188.149
43.64000 195.626
43.68000 188.769
43.72000 187.040
43.76000 196.766
43.80000 179.769
43.84000 182.889
43.88000 188.358
43.92000 184.685
43.96000 184.447
44.00000 188.078
44.04000 187.200
44.08000 194.871
44.12000 189.764
44.16000 198.949
44.20000 203.433
44.24000 201.034
44.28000 189.364
44.32000 203.541
44.36000 192.030
44.40000 195.697
44.44000 209.443
44.48000 203.030
44.52000 200.217
44.56000 203.327
44.60000 203.887
44.64000 215.001
44.68000 204.395
44.72000 220.508
44.76000 230.195
44.80000 236.327
44.84000 216.837
44.88000 215.507
44.92000 242.173
44.96000 239.460
45.00000 227.293
45.04000 232.960
45.08000 237.460
45.12000 232.230
45.16000 226.621
45.20000 232.076
45.24000 245.766
45.28000 227.016
45.32000 206.102
45.36000 235.684
45.40000 217.522
45.44000 216.088
45.48000 203.303
45.52000 205.665
45.56000 189.520
45.60000 202.686
45.64000 205.987
45.68000 190.309
45.72000 190.061
45.76000 176.633
45.80000 184.267
45.84000 178.528
45.88000 187.530
45.92000 189.676
45.96000 183.796
46.00000 178.784
46.04000 187.109
46.08000 160.773
46.12000 170.390
46.16000 168.408
46.20000 178.133
46.24000 181.474
46.28000 180.114
46.32000 173.775
46.36000 175.518
46.40000 180.062
46.44000 161.593
46.48000 175.332
46.52000 167.377
46.56000 166.527
46.60000 171.454
46.64000 168.650
46.68000 164.909
46.72000 168.946
46.76000 170.107
46.80000 183.066
46.84000 160.631
46.88000 166.229
46.92000 173.875
46.96000 166.518
47.00000 175.885
47.04000 171.849
47.08000 176.418
47.12000 157.479
47.16000 172.803
47.20000 160.308
47.24000 160.511
47.28000 171.636
47.32000 166.473
47.36000 155.921
47.40000 152.791
47.44000 164.932
47.48000 155.805
47.52000 166.760
47.56000 153.076
47.60000 162.197
47.64000 157.245
47.68000 163.155
47.72000 149.130
47.76000 162.548
47.80000 158.496
47.84000 148.033
47.88000 162.613
47.92000 162.642
47.96000 156.597
48.00000 158.115
48.04000 172.021
48.08000 152.000
48.12000 151.840
48.16000 150.142
48.20000 160.280
48.24000 148.527
48.28000 151.961
48.32000 150.559
48.36000 156.845
48.40000 158.087
48.44000 168.059
48.48000 153.999
48.52000 155.658
48.56000 149.624
48.60000 163.287
48.64000 152.268
48.68000 162.773
48.72000 151.496
48.76000 139.363
48.80000 151.836
48.84000 159.265
48.88000 154.792
48.92000 158.774
48.96000 154.455
49.00000 160.007
49.04000 160.727
49.08000 161.271
49.12000 160.888
49.16000 162.063
49.20000 152.814
49.24000 153.569
49.28000 143.650
49.32000 152.046
49.36000 155.441
49.40000 166.592
49.44000 149.985
49.48000 143.689
49.52000 151.261
49.56000 150.902
49.60000 147.830
49.64000 145.715
49.68000 145.700
49.72000 156.526
49.76000 151.112
49.80000 142.510
49.84000 161.719
49.88000 151.734
49.92000 158.114
49.96000 143.484
50.00000 150.899
50.04000 152.592
50.08000 147.245
50.12000 146.302
50.16000 152.342
50.20000 154.950
50.24000 149.227
50.28000 148.545
50.32000 158.352
50.36000 151.376
50.40000 160.118
50.44000 152.600
50.48000 162.920
50.52000 173.680
50.56000 156.396
50.60000 155.227
50.64000 158.839
50.68000 153.160
50.72000 156.953
50.76000 154.068
50.80000 173.689
50.84000 158.718
50.88000 164.396
50.92000 155.616
50.96000 147.240
51.00000 149.411
51.04000 157.006
51.08000 152.609
51.12000 152.462
51.16000 151.859
51.20000 146.862
51.24000 139.212
51.28000 148.678
51.32000 146.757
51.36000 139.665
51.40000 146.574
51.44000 150.287
51.48000 135.042
51.52000 146.619
51.56000 134.830
51.60000 147.902
51.64000 137.939
51.68000 139.306
51.72000 128.804
51.76000 148.227
51.80000 135.103
51.84000 140.077
51.88000 143.773
51.92000 134.102
51.96000 140.044
52.00000 134.978
52.04000 137.749
52.08000 127.086
52.12000 137.593
52.16000 139.570
52.20000 133.140
52.24000 141.812
52.28000 137.443
52.32000 141.813
52.36000 138.499
52.40000 132.420
52.44000 137.208
52.48000 142.879
52.52000 151.854
52.56000 133.610
52.60000 132.505
52.64000 130.894
52.68000 136.209
52.72000 138.214
52.76000 138.950
52.80000 145.246
52.84000 136.338
52.88000 138.212
52.92000 127.265
52.96000 131.515
53.00000 141.559
53.04000 137.982
53.08000 138.247
53.12000 133.528
53.16000 144.482
53.20000 144.241
53.24000 140.949
53.28000 141.154
53.32000 147.270
53.36000 145.890
53.40000 154.746
53.44000 140.878
53.48000 138.614
53.52000 150.458
53.56000 141.138
53.60000 145.527
53.64000 143.382
53.68000 145.817
53.72000 149.713
53.76000 141.999
53.80000 141.038
53.84000 139.559
53.88000 140.195
53.92000 124.694
53.96000 132.862
54.00000 135.707
54.04000 133.506
54.08000 131.776
54.12000 136.280
54.16000 126.135
54.20000 143.650
54.24000 139.895
54.28000 139.278
54.32000 136.141
54.36000 134.315
54.40000 130.548
54.44000 140.828
54.48000 141.448
54.52000 135.087
54.56000 152.521
54.60000 138.590
54.64000 141.266
54.68000 131.669
54.72000 131.237
54.76000 125.548
54.80000 152.896
54.84000 142.954
54.88000 134.491
54.92000 136.465
54.96000 135.437
55.00000 128.473
55.04000 137.786
55.08000 142.845
55.12000 142.854
55.16000 140.100
55.20000 156.757
55.24000 147.913
55.28000 153.821
55.32000 151.940
55.36000 162.532
55.40000 168.764
55.44000 179.292
55.48000 180.690
55.52000 184.934
55.56000 208.587
55.60000 215.097
55.64000 251.312
55.68000 270.849
55.72000 299.232
55.76000 341.932
55.80000 386.949
55.84000 407.901
55.88000 466.912
55.92000 474.670
55.96000 474.258
56.00000 493.296
56.04000 464.215
56.08000 438.221
56.12000 405.076
56.16000 357.391
56.20000 314.111
56.24000 284.763
56.28000 251.803
56.32000 220.592
56.36000 209.830
56.40000 182.321
56.44000 166.196
56.48000 165.450
56.52000 154.867
56.56000 145.164
56.60000 142.248
56.64000 151.659
56.68000 146.519
56.72000 141.751
56.76000 143.806
56.80000 147.272
56.84000 141.261
56.88000 137.461
56.92000 138.489
56.96000 135.403
57.00000 120.991
57.04000 130.259
57.08000 128.381
57.12000 129.681
57.16000 131.753
57.20000 127.232
57.24000 134.036
57.28000 125.927
57.32000 125.350
57.36000 118.031
57.40000 128.602
57.44000 127.723
57.48000 125.891
57.52000 124.981
57.56000 127.197
57.60000 133.753
57.64000 128.974
57.68000 130.287
57.72000 127.954
57.76000 126.187
57.80000 115.116
57.84000 125.754
57.88000 126.298
57.92000 123.629
57.96000 132.656
58.00000 128.831
58.04000 118.689
58.08000 121.098
58.12000 124.693
58.16000 125.202
58.20000 118.984
58.24000 127.548
58.28000 118.455
58.32000 126.970
58.36000 123.654
58.40000 110.501
58.44000 122.421
58.48000 121.506
58.52000 120.817
58.56000 122.182
58.60000 123.652
58.64000 132.762
58.68000 116.848
58.72000 121.354
58.76000 120.911
58.80000 120.658
58.84000 116.128
58.88000 111.174
58.92000 124.446
58.96000 116.151
59.00000 123.903
59.04000 118.942
59.08000 116.893
59.12000 118.676
59.16000 115.935
59.20000 114.394
59.24000 117.699
59.28000 123.816
59.32000 113.962
59.36000 112.445
59.40000 118.046
59.44000 113.267
59.48000 115.703
59.52000 121.132
59.56000 126.852
59.60000 123.566
59.64000 121.608
59.68000 117.748
59.72000 117.741
59.76000 111.716
59.80000 115.821
59.84000 112.595
59.88000 120.855
59.92000 111.139
59.96000 114.654
60.00000 120.564
60.04000 116.695
60.08000 108.412
60.12000 119.586
60.16000 119.785
60.20000 115.992
60.24000 116.544
60.28000 125.285
60.32000 107.059
60.36000 121.433
60.40000 118.274
60.44000 118.754
60.48000 114.088
60.52000 113.555
60.56000 115.843
60.60000 126.797
60.64000 114.692
60.68000 112.100
60.72000 107.553
60.76000 119.138
60.80000 123.987
60.84000 115.099
60.88000 128.712
60.92000 118.445
60.96000 111.510
61.00000 112.023
61.04000 131.227
61.08000 129.885
61.12000 129.464
61.16000 120.497
61.20000 125.977
61.24000 114.545
61.28000 122.958
61.32000 125.947
61.36000 121.116
61.40000 135.081
61.44000 128.176
61.48000 129.308
61.52000 153.865
61.56000 201.344
61.60000 247.499
61.64000 268.427
61.68000 287.290
61.72000 303.041
61.76000 269.396
61.80000 212.313
61.84000 163.857
61.88000 145.302
61.92000 134.892
61.96000 126.389
62.00000 126.697
62.04000 134.367
62.08000 127.153
62.12000 133.010
62.16000 132.407
62.20000 138.510
62.24000 131.077
62.28000 127.873
62.32000 126.399
62.36000 129.940
62.40000 125.403
62.44000 130.238
62.48000 124.049
62.52000 122.595
62.56000 132.378
62.60000 127.522
62.64000 129.387
62.68000 125.739
62.72000 132.085
62.76000 128.757
62.80000 127.207
62.84000 129.570
62.88000 137.947
62.92000 129.707
62.96000 137.742
63.00000 137.543
63.04000 126.246
63.08000 137.120
63.12000 136.850
63.16000 134.054
63.20000 122.100
63.24000 132.847
63.28000 125.816
63.32000 135.439
63.36000 131.930
63.40000 135.608
63.44000 137.222
63.48000 143.195
63.52000 133.495
63.56000 139.957
63.60000 131.176
63.64000 134.993
63.68000 141.992
63.72000 135.583
63.76000 143.420
63.80000 143.419
63.84000 146.689
63.88000 146.744
63.92000 129.002
63.96000 134.630
64.00000 145.949
64.04000 148.645
64.08000 138.062
64.12000 141.158
64.16000 152.508
64.20000 142.646
64.24000 145.852
64.28000 151.907
64.32000 155.548
64.36000 152.878
64.40000 158.697
64.44000 155.234
64.48000 153.179
64.52000 157.497
64.56000 171.622
64.60000 167.068
64.64000 160.322
64.68000 179.409
64.72000 172.895
64.76000 162.217
64.80000 176.621
64.84000 168.876
64.88000 173.895
64.92000 181.893
64.96000 184.199
65.00000 186.184
65.04000 196.473
65.08000 187.959
65.12000 203.845
65.16000 196.032
65.20000 220.924
65.24000 224.956
65.28000 234.612
65.32000 244.178
65.36000 249.203
65.40000 274.503
65.44000 264.787
65.48000 290.514
65.52000 301.663
65.56000 325.846
65.60000 340.314
65.64000 404.577
65.68000 551.631
65.72000 881.804
65.76000 1359.906
65.80000 1744.415
65.84000 1908.788
65.88000 1934.977
65.92000 1840.852
65.96000 1490.124
66.00000 1000.117
66.04000 674.532
66.08000 457.586
66.12000 395.761
66.16000 368.869
66.20000 372.715
66.24000 381.997
66.28000 439.058
66.32000 532.712
66.36000 604.210
66.40000 626.832
66.44000 617.814
66.48000 605.246
66.52000 538.651
66.56000 438.627
66.60000 383.919
66.64000 359.350
66.68000 353.518
66.72000 354.893
66.76000 342.801
66.80000 349.815
66.84000 340.828
66.88000 345.349
66.92000 366.382
66.96000 361.314
67.00000 366.437
67.04000 362.301
67.08000 367.094
67.12000 394.503
67.16000 378.886
67.20000 377.978
67.24000 382.722
67.28000 378.202
67.32000 397.292
67.36000 390.495
67.40000 420.279
67.44000 421.355
67.48000 431.346
67.52000 430.520
67.56000 441.433
67.60000 427.931
67.64000 455.465
67.68000 445.844
67.72000 454.931
67.76000 446.080
67.80000 460.246
67.84000 474.562
67.88000 459.785
67.92000 484.341
67.96000 491.101
68.00000 468.529
68.04000 503.921
68.08000 530.053
68.12000 527.537
68.16000 527.781
68.20000 532.173
68.24000 557.617
68.28000 556.485
68.32000 572.153
68.36000 583.932
68.40000 617.633
68.44000 652.163
68.48000 677.215
68.52000 698.054
68.56000 758.386
68.60000 809.455
68.64000 965.228
68.68000 1083.489
68.72000 1257.863
68.76000 1445.030
68.80000 1614.812
68.84000 1819.640
68.88000 2234.089
68.92000 3290.821
68.96000 9109.847
69.00000 21045.676
69.04000 33559.977
69.08000 40354.547
69.12000 43184.895
69.16000 45750.109
69.20000 45530.891
69.24000 36400.727
69.28000 26866.186
69.32000 21984.805
69.36000 20565.760
69.40000 17222.531
69.44000 10686.280
69.48000 4792.229
69.52000 2147.628
69.56000 1315.967
69.60000 1040.397
69.64000 908.802
69.68000 807.514
69.72000 718.496
69.76000 663.247
69.80000 622.336
69.84000 593.234
69.88000 547.057
69.92000 526.583
69.96000 517.750
70.00000 473.214