File: XRD/XRD/07-10-2025 Dep 6/XY Data/BTO_Mapping_Theta2Theta_07-10-2025_001_07_18-271_8-135.xy
20.00000 471.272
20.04000 483.240
20.08000 489.829
20.12000 466.004
20.16000 474.423
20.20000 435.899
20.24000 465.306
20.28000 455.059
20.32000 484.269
20.36000 473.889
20.40000 469.981
20.44000 482.891
20.48000 461.795
20.52000 482.517
20.56000 456.797
20.60000 446.179
20.64000 448.613
20.68000 459.800
20.72000 477.394
20.76000 464.682
20.80000 452.362
20.84000 443.789
20.88000 467.419
20.92000 463.882
20.96000 465.844
21.00000 466.183
21.04000 449.235
21.08000 463.697
21.12000 467.525
21.16000 460.242
21.20000 473.871
21.24000 457.402
21.28000 438.271
21.32000 453.602
21.36000 473.244
21.40000 457.491
21.44000 461.592
21.48000 451.744
21.52000 458.597
21.56000 454.119
21.60000 470.094
21.64000 472.219
21.68000 462.481
21.72000 456.011
21.76000 485.302
21.80000 480.277
21.84000 475.477
21.88000 460.137
21.92000 478.022
21.96000 510.752
22.00000 483.525
22.04000 500.152
22.08000 529.655
22.12000 488.361
22.16000 503.845
22.20000 479.483
22.24000 494.039
22.28000 500.656
22.32000 487.226
22.36000 484.927
22.40000 456.752
22.44000 451.956
22.48000 457.095
22.52000 460.467
22.56000 465.716
22.60000 444.128
22.64000 442.784
22.68000 467.262
22.72000 444.202
22.76000 440.027
22.80000 439.650
22.84000 444.893
22.88000 457.275
22.92000 434.660
22.96000 447.385
23.00000 425.676
23.04000 431.960
23.08000 425.957
23.12000 430.403
23.16000 455.145
23.20000 435.676
23.24000 436.561
23.28000 436.877
23.32000 425.318
23.36000 443.219
23.40000 443.027
23.44000 431.730
23.48000 434.905
23.52000 439.821
23.56000 433.158
23.60000 431.149
23.64000 452.641
23.68000 455.268
23.72000 460.654
23.76000 463.963
23.80000 472.215
23.84000 472.126
23.88000 503.011
23.92000 495.549
23.96000 530.965
24.00000 519.931
24.04000 507.465
24.08000 497.970
24.12000 474.558
24.16000 453.915
24.20000 463.236
24.24000 469.051
24.28000 429.819
24.32000 447.087
24.36000 458.612
24.40000 430.447
24.44000 417.705
24.48000 437.756
24.52000 413.973
24.56000 406.072
24.60000 416.589
24.64000 409.535
24.68000 401.592
24.72000 403.961
24.76000 410.133
24.80000 422.240
24.84000 419.218
24.88000 412.343
24.92000 403.060
24.96000 415.886
25.00000 413.217
25.04000 389.481
25.08000 413.926
25.12000 411.529
25.16000 394.622
25.20000 393.810
25.24000 397.920
25.28000 397.121
25.32000 401.469
25.36000 394.091
25.40000 381.652
25.44000 395.897
25.48000 392.486
25.52000 394.120
25.56000 383.522
25.60000 396.061
25.64000 398.025
25.68000 416.465
25.72000 407.507
25.76000 389.706
25.80000 384.149
25.84000 400.625
25.88000 389.091
25.92000 397.233
25.96000 391.269
26.00000 389.660
26.04000 372.754
26.08000 393.199
26.12000 381.050
26.16000 384.776
26.20000 379.206
26.24000 391.304
26.28000 382.925
26.32000 374.148
26.36000 398.913
26.40000 390.114
26.44000 377.758
26.48000 390.308
26.52000 387.263
26.56000 383.064
26.60000 372.855
26.64000 385.591
26.68000 367.457
26.72000 373.429
26.76000 386.064
26.80000 367.974
26.84000 377.532
26.88000 370.623
26.92000 382.574
26.96000 377.082
27.00000 380.074
27.04000 363.465
27.08000 375.030
27.12000 374.862
27.16000 369.441
27.20000 367.762
27.24000 381.417
27.28000 368.655
27.32000 359.845
27.36000 362.120
27.40000 371.434
27.44000 380.588
27.48000 370.184
27.52000 370.502
27.56000 361.041
27.60000 368.810
27.64000 380.170
27.68000 391.416
27.72000 363.538
27.76000 374.510
27.80000 384.459
27.84000 365.416
27.88000 374.415
27.92000 373.381
27.96000 372.750
28.00000 338.988
28.04000 368.059
28.08000 374.697
28.12000 345.270
28.16000 371.174
28.20000 344.516
28.24000 368.617
28.28000 361.825
28.32000 361.241
28.36000 369.430
28.40000 352.933
28.44000 363.266
28.48000 362.431
28.52000 365.560
28.56000 346.584
28.60000 359.998
28.64000 368.470
28.68000 365.328
28.72000 334.890
28.76000 364.263
28.80000 358.359
28.84000 359.165
28.88000 343.305
28.92000 352.972
28.96000 352.909
29.00000 361.032
29.04000 365.857
29.08000 355.413
29.12000 363.520
29.16000 362.740
29.20000 353.117
29.24000 349.688
29.28000 332.924
29.32000 362.712
29.36000 349.119
29.40000 354.053
29.44000 362.292
29.48000 356.063
29.52000 360.031
29.56000 343.719
29.60000 342.290
29.64000 355.555
29.68000 377.647
29.72000 361.836
29.76000 353.539
29.80000 360.098
29.84000 361.562
29.88000 383.787
29.92000 384.887
29.96000 388.876
30.00000 384.193
30.04000 374.405
30.08000 355.261
30.12000 371.537
30.16000 365.904
30.20000 363.446
30.24000 357.199
30.28000 376.965
30.32000 356.332
30.36000 357.319
30.40000 345.704
30.44000 374.037
30.48000 372.107
30.52000 361.741
30.56000 363.902
30.60000 377.301
30.64000 372.587
30.68000 386.635
30.72000 385.175
30.76000 389.247
30.80000 403.103
30.84000 398.011
30.88000 392.109
30.92000 423.777
30.96000 445.169
31.00000 453.600
31.04000 474.203
31.08000 516.681
31.12000 592.149
31.16000 660.947
31.20000 727.295
31.24000 828.618
31.28000 904.196
31.32000 971.179
31.36000 1010.031
31.40000 1009.585
31.44000 969.021
31.48000 899.831
31.52000 814.590
31.56000 734.171
31.60000 631.067
31.64000 590.092
31.68000 513.528
31.72000 486.763
31.76000 442.669
31.80000 426.879
31.84000 409.098
31.88000 379.654
31.92000 366.280
31.96000 392.771
32.00000 368.287
32.04000 356.146
32.08000 348.266
32.12000 354.924
32.16000 348.935
32.20000 342.225
32.24000 333.474
32.28000 346.025
32.32000 333.883
32.36000 352.535
32.40000 328.593
32.44000 325.105
32.48000 332.699
32.52000 332.617
32.56000 355.856
32.60000 319.309
32.64000 319.473
32.68000 318.229
32.72000 317.210
32.76000 309.585
32.80000 342.298
32.84000 382.646
32.88000 461.888
32.92000 501.262
32.96000 521.133
33.00000 542.113
33.04000 503.518
33.08000 459.557
33.12000 390.769
33.16000 330.606
33.20000 310.905
33.24000 297.797
33.28000 305.400
33.32000 303.333
33.36000 296.065
33.40000 299.799
33.44000 290.704
33.48000 276.379
33.52000 294.020
33.56000 286.780
33.60000 286.676
33.64000 307.492
33.68000 311.537
33.72000 290.731
33.76000 292.320
33.80000 304.192
33.84000 300.379
33.88000 305.065
33.92000 304.770
33.96000 306.105
34.00000 287.572
34.04000 285.802
34.08000 315.958
34.12000 313.623
34.16000 312.160
34.20000 326.700
34.24000 326.286
34.28000 317.356
34.32000 322.094
34.36000 317.395
34.40000 308.930
34.44000 286.255
34.48000 306.431
34.52000 317.237
34.56000 312.070
34.60000 294.427
34.64000 299.142
34.68000 292.751
34.72000 286.303
34.76000 292.804
34.80000 296.314
34.84000 298.037
34.88000 281.313
34.92000 276.363
34.96000 272.833
35.00000 266.436
35.04000 276.367
35.08000 270.397
35.12000 267.370
35.16000 287.425
35.20000 281.299
35.24000 265.559
35.28000 273.541
35.32000 269.972
35.36000 261.150
35.40000 258.862
35.44000 258.558
35.48000 273.316
35.52000 253.844
35.56000 272.636
35.60000 254.140
35.64000 264.095
35.68000 278.417
35.72000 255.086
35.76000 258.167
35.80000 255.404
35.84000 252.850
35.88000 261.414
35.92000 259.101
35.96000 253.619
36.00000 272.705
36.04000 264.795
36.08000 264.953
36.12000 249.022
36.16000 255.205
36.20000 246.114
36.24000 253.816
36.28000 254.373
36.32000 238.876
36.36000 246.023
36.40000 259.474
36.44000 251.869
36.48000 263.356
36.52000 258.643
36.56000 249.756
36.60000 259.300
36.64000 248.470
36.68000 256.168
36.72000 254.876
36.76000 270.200
36.80000 273.605
36.84000 276.457
36.88000 256.953
36.92000 251.287
36.96000 267.340
37.00000 266.601
37.04000 275.847
37.08000 270.702
37.12000 266.473
37.16000 258.610
37.20000 246.805
37.24000 245.306
37.28000 242.958
37.32000 250.361
37.36000 251.603
37.40000 246.744
37.44000 244.688
37.48000 244.459
37.52000 242.201
37.56000 267.815
37.60000 245.383
37.64000 236.994
37.68000 242.631
37.72000 241.919
37.76000 252.639
37.80000 250.142
37.84000 251.601
37.88000 253.277
37.92000 246.552
37.96000 259.799
38.00000 245.998
38.04000 247.932
38.08000 264.561
38.12000 249.758
38.16000 251.778
38.20000 259.637
38.24000 265.410
38.28000 264.886
38.32000 274.362
38.36000 300.382
38.40000 311.983
38.44000 340.229
38.48000 380.381
38.52000 444.970
38.56000 525.645
38.60000 573.319
38.64000 634.769
38.68000 670.008
38.72000 674.277
38.76000 672.273
38.80000 620.460
38.84000 542.256
38.88000 464.067
38.92000 414.946
38.96000 347.522
39.00000 307.804
39.04000 274.401
39.08000 262.294
39.12000 261.770
39.16000 251.817
39.20000 261.798
39.24000 238.241
39.28000 238.879
39.32000 224.895
39.36000 229.356
39.40000 245.650
39.44000 239.227
39.48000 227.876
39.52000 231.157
39.56000 248.352
39.60000 248.304
39.64000 230.385
39.68000 222.765
39.72000 231.946
39.76000 217.346
39.80000 231.729
39.84000 222.702
39.88000 225.613
39.92000 215.941
39.96000 229.863
40.00000 222.083
40.04000 218.364
40.08000 225.897
40.12000 239.644
40.16000 222.538
40.20000 225.958
40.24000 217.426
40.28000 228.659
40.32000 230.522
40.36000 214.505
40.40000 215.621
40.44000 211.918
40.48000 209.109
40.52000 228.579
40.56000 217.217
40.60000 204.373
40.64000 205.604
40.68000 202.918
40.72000 215.758
40.76000 223.269
40.80000 209.490
40.84000 210.875
40.88000 208.966
40.92000 210.484
40.96000 208.583
41.00000 196.909
41.04000 220.041
41.08000 204.413
41.12000 220.853
41.16000 215.208
41.20000 198.856
41.24000 193.548
41.28000 198.430
41.32000 223.184
41.36000 208.419
41.40000 223.895
41.44000 219.975
41.48000 216.000
41.52000 211.164
41.56000 211.816
41.60000 205.999
41.64000 216.296
41.68000 198.949
41.72000 215.060
41.76000 207.825
41.80000 216.418
41.84000 221.786
41.88000 223.756
41.92000 218.935
41.96000 204.215
42.00000 209.584
42.04000 206.416
42.08000 218.509
42.12000 210.383
42.16000 213.754
42.20000 223.205
42.24000 190.900
42.28000 216.903
42.32000 195.109
42.36000 218.456
42.40000 202.314
42.44000 218.109
42.48000 208.883
42.52000 212.099
42.56000 210.302
42.60000 209.658
42.64000 207.704
42.68000 200.740
42.72000 206.453
42.76000 206.506
42.80000 199.769
42.84000 203.796
42.88000 211.619
42.92000 199.864
42.96000 190.301
43.00000 203.903
43.04000 194.353
43.08000 199.247
43.12000 198.836
43.16000 190.341
43.20000 199.769
43.24000 201.348
43.28000 185.048
43.32000 206.653
43.36000 193.199
43.40000 188.062
43.44000 187.586
43.48000 191.769
43.52000 196.123
43.56000 179.563
43.60000 184.261
43.64000 203.653
43.68000 188.554
43.72000 195.327
43.76000 193.774
43.80000 190.749
43.84000 181.712
43.88000 184.308
43.92000 209.012
43.96000 202.212
44.00000 195.188
44.04000 195.298
44.08000 190.892
44.12000 184.614
44.16000 187.636
44.20000 191.896
44.24000 186.535
44.28000 193.113
44.32000 181.973
44.36000 203.985
44.40000 202.688
44.44000 207.360
44.48000 207.445
44.52000 199.057
44.56000 207.559
44.60000 211.306
44.64000 211.131
44.68000 200.840
44.72000 208.575
44.76000 218.871
44.80000 225.639
44.84000 216.695
44.88000 229.576
44.92000 224.768
44.96000 223.875
45.00000 229.746
45.04000 226.322
45.08000 224.795
45.12000 226.191
45.16000 232.806
45.20000 218.389
45.24000 203.661
45.28000 220.106
45.32000 213.482
45.36000 205.245
45.40000 199.143
45.44000 210.078
45.48000 206.242
45.52000 198.480
45.56000 207.942
45.60000 203.439
45.64000 184.650
45.68000 187.044
45.72000 187.313
45.76000 184.219
45.80000 192.221
45.84000 185.120
45.88000 176.857
45.92000 182.006
45.96000 191.741
46.00000 178.690
46.04000 186.773
46.08000 180.827
46.12000 178.417
46.16000 190.799
46.20000 169.749
46.24000 170.107
46.28000 176.698
46.32000 174.471
46.36000 181.907
46.40000 174.508
46.44000 173.649
46.48000 177.172
46.52000 183.848
46.56000 176.706
46.60000 171.447
46.64000 175.535
46.68000 188.547
46.72000 175.347
46.76000 171.770
46.80000 167.836
46.84000 178.691
46.88000 178.159
46.92000 172.376
46.96000 173.061
47.00000 156.122
47.04000 175.256
47.08000 172.333
47.12000 170.996
47.16000 167.699
47.20000 152.399
47.24000 163.252
47.28000 164.123
47.32000 165.378
47.36000 167.644
47.40000 169.294
47.44000 161.711
47.48000 159.086
47.52000 164.074
47.56000 161.116
47.60000 159.373
47.64000 165.058
47.68000 168.860
47.72000 157.275
47.76000 151.062
47.80000 153.897
47.84000 157.859
47.88000 164.944
47.92000 160.038
47.96000 155.430
48.00000 160.198
48.04000 151.098
48.08000 162.105
48.12000 155.407
48.16000 163.100
48.20000 156.842
48.24000 152.544
48.28000 149.186
48.32000 148.425
48.36000 175.291
48.40000 162.154
48.44000 168.997
48.48000 150.316
48.52000 148.346
48.56000 158.743
48.60000 158.512
48.64000 156.604
48.68000 157.998
48.72000 161.816
48.76000 158.903
48.80000 156.618
48.84000 155.635
48.88000 155.623
48.92000 158.903
48.96000 164.255
49.00000 158.481
49.04000 163.605
49.08000 145.688
49.12000 158.397
49.16000 156.725
49.20000 148.503
49.24000 159.573
49.28000 164.520
49.32000 145.500
49.36000 154.971
49.40000 136.604
49.44000 150.004
49.48000 158.410
49.52000 155.485
49.56000 156.403
49.60000 152.126
49.64000 146.236
49.68000 143.501
49.72000 157.619
49.76000 148.862
49.80000 147.303
49.84000 152.912
49.88000 154.500
49.92000 154.298
49.96000 150.737
50.00000 154.598
50.04000 158.099
50.08000 159.673
50.12000 148.309
50.16000 151.801
50.20000 163.609
50.24000 155.895
50.28000 159.797
50.32000 155.744
50.36000 152.061
50.40000 154.155
50.44000 154.689
50.48000 166.264
50.52000 160.017
50.56000 159.243
50.60000 157.656
50.64000 168.652
50.68000 158.594
50.72000 163.572
50.76000 165.148
50.80000 166.278
50.84000 162.651
50.88000 156.256
50.92000 158.777
50.96000 151.848
51.00000 144.072
51.04000 152.482
51.08000 152.103
51.12000 145.209
51.16000 143.627
51.20000 143.507
51.24000 154.825
51.28000 143.747
51.32000 138.799
51.36000 143.928
51.40000 152.233
51.44000 149.887
51.48000 142.772
51.52000 154.840
51.56000 150.431
51.60000 139.473
51.64000 149.703
51.68000 146.923
51.72000 143.396
51.76000 143.787
51.80000 140.753
51.84000 136.225
51.88000 142.246
51.92000 135.280
51.96000 133.965
52.00000 143.076
52.04000 137.048
52.08000 151.142
52.12000 136.006
52.16000 144.812
52.20000 148.821
52.24000 139.242
52.28000 136.142
52.32000 135.037
52.36000 129.113
52.40000 144.021
52.44000 139.226
52.48000 134.161
52.52000 133.626
52.56000 135.465
52.60000 133.359
52.64000 144.745
52.68000 145.055
52.72000 145.638
52.76000 135.150
52.80000 138.983
52.84000 134.347
52.88000 140.530
52.92000 124.562
52.96000 137.443
53.00000 146.312
53.04000 140.949
53.08000 139.816
53.12000 144.221
53.16000 146.393
53.20000 141.182
53.24000 149.302
53.28000 144.432
53.32000 125.363
53.36000 140.735
53.40000 149.054
53.44000 152.349
53.48000 137.406
53.52000 138.394
53.56000 143.815
53.60000 138.647
53.64000 151.137
53.68000 137.316
53.72000 139.934
53.76000 139.766
53.80000 129.974
53.84000 135.804
53.88000 135.187
53.92000 133.957
53.96000 134.295
54.00000 134.775
54.04000 129.520
54.08000 150.369
54.12000 140.880
54.16000 141.396
54.20000 125.573
54.24000 129.435
54.28000 143.819
54.32000 134.568
54.36000 127.299
54.40000 132.667
54.44000 138.818
54.48000 142.588
54.52000 139.960
54.56000 134.606
54.60000 141.046
54.64000 141.885
54.68000 138.224
54.72000 142.577
54.76000 142.477
54.80000 142.780
54.84000 141.368
54.88000 141.958
54.92000 132.992
54.96000 149.359
55.00000 139.060
55.04000 154.506
55.08000 149.412
55.12000 151.450
55.16000 148.115
55.20000 146.177
55.24000 155.101
55.28000 150.495
55.32000 146.618
55.36000 158.776
55.40000 161.159
55.44000 174.071
55.48000 176.640
55.52000 174.495
55.56000 193.656
55.60000 216.402
55.64000 206.827
55.68000 229.219
55.72000 264.815
55.76000 273.711
55.80000 295.554
55.84000 307.622
55.88000 322.461
55.92000 316.175
55.96000 326.295
56.00000 321.928
56.04000 317.197
56.08000 310.816
56.12000 285.811
56.16000 267.699
56.20000 248.525
56.24000 207.558
56.28000 209.628
56.32000 190.354
56.36000 176.143
56.40000 184.226
56.44000 169.559
56.48000 165.400
56.52000 156.150
56.56000 146.217
56.60000 155.573
56.64000 150.646
56.68000 134.218
56.72000 141.374
56.76000 150.870
56.80000 147.169
56.84000 136.557
56.88000 149.783
56.92000 130.273
56.96000 131.588
57.00000 136.346
57.04000 140.203
57.08000 133.693
57.12000 132.922
57.16000 127.832
57.20000 125.960
57.24000 129.693
57.28000 138.948
57.32000 122.922
57.36000 112.898
57.40000 132.483
57.44000 136.678
57.48000 122.070
57.52000 131.506
57.56000 122.697
57.60000 123.058
57.64000 126.531
57.68000 114.996
57.72000 125.912
57.76000 118.032
57.80000 119.479
57.84000 130.604
57.88000 116.054
57.92000 127.261
57.96000 120.450
58.00000 118.504
58.04000 119.383
58.08000 128.383
58.12000 116.498
58.16000 117.361
58.20000 125.394
58.24000 126.252
58.28000 123.603
58.32000 121.298
58.36000 121.271
58.40000 125.555
58.44000 120.357
58.48000 121.081
58.52000 123.080
58.56000 117.504
58.60000 125.450
58.64000 117.950
58.68000 112.706
58.72000 122.345
58.76000 121.825
58.80000 126.975
58.84000 124.979
58.88000 117.847
58.92000 114.289
58.96000 120.953
59.00000 113.584
59.04000 114.345
59.08000 113.373
59.12000 109.325
59.16000 110.755
59.20000 118.460
59.24000 125.965
59.28000 108.657
59.32000 126.454
59.36000 107.228
59.40000 117.375
59.44000 115.925
59.48000 118.565
59.52000 116.497
59.56000 107.187
59.60000 112.397
59.64000 112.321
59.68000 114.904
59.72000 119.203
59.76000 110.598
59.80000 112.434
59.84000 119.318
59.88000 121.945
59.92000 115.161
59.96000 117.639
60.00000 125.185
60.04000 110.460
60.08000 112.331
60.12000 111.267
60.16000 111.194
60.20000 120.093
60.24000 112.229
60.28000 115.413
60.32000 121.415
60.36000 116.986
60.40000 115.978
60.44000 117.633
60.48000 116.747
60.52000 122.876
60.56000 112.606
60.60000 119.909
60.64000 117.040
60.68000 112.354
60.72000 112.851
60.76000 120.036
60.80000 125.262
60.84000 117.246
60.88000 123.140
60.92000 124.547
60.96000 124.780
61.00000 121.887
61.04000 118.850
61.08000 113.501
61.12000 111.904
61.16000 126.859
61.20000 119.952
61.24000 113.608
61.28000 124.052
61.32000 121.618
61.36000 121.786
61.40000 129.615
61.44000 120.427
61.48000 125.540
61.52000 154.231
61.56000 201.404
61.60000 254.400
61.64000 274.374
61.68000 291.303
61.72000 305.682
61.76000 274.800
61.80000 218.673
61.84000 178.036
61.88000 144.383
61.92000 144.334
61.96000 135.136
62.00000 133.963
62.04000 126.578
62.08000 127.653
62.12000 120.508
62.16000 128.107
62.20000 129.427
62.24000 140.167
62.28000 129.298
62.32000 132.027
62.36000 135.312
62.40000 136.092
62.44000 130.635
62.48000 130.001
62.52000 136.465
62.56000 128.428
62.60000 131.334
62.64000 136.651
62.68000 133.444
62.72000 126.500
62.76000 127.248
62.80000 136.981
62.84000 128.744
62.88000 128.917
62.92000 137.555
62.96000 136.316
63.00000 144.552
63.04000 130.659
63.08000 136.541
63.12000 124.205
63.16000 138.313
63.20000 131.131
63.24000 132.201
63.28000 134.667
63.32000 140.639
63.36000 125.431
63.40000 138.710
63.44000 125.430
63.48000 128.505
63.52000 136.229
63.56000 131.822
63.60000 148.215
63.64000 145.201
63.68000 141.565
63.72000 136.440
63.76000 132.638
63.80000 137.827
63.84000 149.214
63.88000 136.979
63.92000 146.587
63.96000 153.683
64.00000 146.629
64.04000 137.898
64.08000 156.481
64.12000 150.536
64.16000 145.053
64.20000 155.554
64.24000 154.930
64.28000 150.484
64.32000 157.877
64.36000 152.311
64.40000 162.466
64.44000 153.735
64.48000 161.178
64.52000 161.238
64.56000 169.645
64.60000 166.041
64.64000 162.869
64.68000 166.482
64.72000 174.658
64.76000 162.692
64.80000 178.182
64.84000 172.583
64.88000 191.326
64.92000 179.608
64.96000 179.602
65.00000 192.654
65.04000 191.787
65.08000 202.605
65.12000 207.070
65.16000 196.890
65.20000 215.099
65.24000 210.739
65.28000 222.139
65.32000 233.499
65.36000 241.661
65.40000 237.720
65.44000 256.888
65.48000 283.967
65.52000 306.070
65.56000 306.173
65.60000 341.983
65.64000 408.254
65.68000 533.608
65.72000 856.059
65.76000 1364.405
65.80000 1794.972
65.84000 1958.323
65.88000 1985.631
65.92000 1906.267
65.96000 1550.883
66.00000 1057.839
66.04000 692.531
66.08000 474.015
66.12000 395.147
66.16000 394.044
66.20000 378.299
66.24000 385.368
66.28000 461.338
66.32000 535.165
66.36000 594.522
66.40000 635.785
66.44000 642.589
66.48000 617.533
66.52000 540.667
66.56000 465.516
66.60000 401.408
66.64000 368.010
66.68000 361.708
66.72000 348.993
66.76000 376.176
66.80000 352.686
66.84000 341.591
66.88000 359.165
66.92000 356.605
66.96000 360.757
67.00000 379.268
67.04000 381.535
67.08000 378.662
67.12000 384.701
67.16000 401.368
67.20000 387.545
67.24000 388.382
67.28000 398.094
67.32000 394.566
67.36000 419.340
67.40000 413.675
67.44000 418.743
67.48000 398.088
67.52000 424.937
67.56000 442.158
67.60000 442.171
67.64000 469.146
67.68000 450.870
67.72000 453.633
67.76000 472.588
67.80000 479.316
67.84000 476.454
67.88000 498.680
67.92000 479.607
67.96000 497.534
68.00000 504.878
68.04000 519.526
68.08000 541.244
68.12000 522.642
68.16000 539.875
68.20000 557.811
68.24000 590.086
68.28000 612.906
68.32000 593.288
68.36000 610.566
68.40000 645.471
68.44000 655.598
68.48000 670.710
68.52000 715.419
68.56000 763.623
68.60000 836.583
68.64000 966.693
68.68000 1123.548
68.72000 1274.891
68.76000 1468.942
68.80000 1620.864
68.84000 1865.642
68.88000 2254.581
68.92000 3217.939
68.96000 8733.451
69.00000 20550.340
69.04000 33739.484
69.08000 40915.984
69.12000 43750.688
69.16000 46663.648
69.20000 47022.262
69.24000 38461.703
69.28000 27779.369
69.32000 22730.416
69.36000 21115.984
69.40000 17960.410
69.44000 11668.930
69.48000 5154.569
69.52000 2281.299
69.56000 1382.668
69.60000 1078.237
69.64000 909.928
69.68000 819.465
69.72000 746.713
69.76000 672.608
69.80000 633.718
69.84000 581.306
69.88000 563.849
69.92000 537.966
69.96000 540.512
70.00000 503.345