File: XRD/XRD/07-10-2025 Dep 6/XY Data/BTO_Mapping_Theta2Theta_07-10-2025_001_08_27-406_12-202.xy
20.00000 475.926
20.04000 466.891
20.08000 477.501
20.12000 479.593
20.16000 467.947
20.20000 463.270
20.24000 477.172
20.28000 482.780
20.32000 476.880
20.36000 473.435
20.40000 458.130
20.44000 450.541
20.48000 473.134
20.52000 460.933
20.56000 457.825
20.60000 456.397
20.64000 479.620
20.68000 470.143
20.72000 433.296
20.76000 456.196
20.80000 465.947
20.84000 456.172
20.88000 468.880
20.92000 460.025
20.96000 458.044
21.00000 472.215
21.04000 471.756
21.08000 463.223
21.12000 469.846
21.16000 456.381
21.20000 463.407
21.24000 466.678
21.28000 460.576
21.32000 464.860
21.36000 457.140
21.40000 457.078
21.44000 472.062
21.48000 465.463
21.52000 474.285
21.56000 457.319
21.60000 458.843
21.64000 465.271
21.68000 466.633
21.72000 472.201
21.76000 472.888
21.80000 477.031
21.84000 478.010
21.88000 453.756
21.92000 482.091
21.96000 481.403
22.00000 496.677
22.04000 488.399
22.08000 474.941
22.12000 482.436
22.16000 490.073
22.20000 481.018
22.24000 479.634
22.28000 483.555
22.32000 476.463
22.36000 461.994
22.40000 442.778
22.44000 458.390
22.48000 460.315
22.52000 445.855
22.56000 438.402
22.60000 430.879
22.64000 440.858
22.68000 445.826
22.72000 449.387
22.76000 434.979
22.80000 441.968
22.84000 441.745
22.88000 432.303
22.92000 423.537
22.96000 452.008
23.00000 431.513
23.04000 443.504
23.08000 448.508
23.12000 454.697
23.16000 436.798
23.20000 450.554
23.24000 439.657
23.28000 441.412
23.32000 434.342
23.36000 431.942
23.40000 434.054
23.44000 420.849
23.48000 433.489
23.52000 423.098
23.56000 451.611
23.60000 455.515
23.64000 433.662
23.68000 457.917
23.72000 454.752
23.76000 460.419
23.80000 465.243
23.84000 473.205
23.88000 488.476
23.92000 526.640
23.96000 519.430
24.00000 502.602
24.04000 496.937
24.08000 498.067
24.12000 486.163
24.16000 485.197
24.20000 465.332
24.24000 446.981
24.28000 433.605
24.32000 452.657
24.36000 426.595
24.40000 420.461
24.44000 429.217
24.48000 422.540
24.52000 418.810
24.56000 411.682
24.60000 409.176
24.64000 406.244
24.68000 428.265
24.72000 406.026
24.76000 400.782
24.80000 393.388
24.84000 407.700
24.88000 400.664
24.92000 403.314
24.96000 414.266
25.00000 397.620
25.04000 425.884
25.08000 417.799
25.12000 410.254
25.16000 413.321
25.20000 390.212
25.24000 396.731
25.28000 401.091
25.32000 405.989
25.36000 394.293
25.40000 380.986
25.44000 400.955
25.48000 394.522
25.52000 407.232
25.56000 391.752
25.60000 380.582
25.64000 399.175
25.68000 385.420
25.72000 387.549
25.76000 404.127
25.80000 407.022
25.84000 390.100
25.88000 388.227
25.92000 390.131
25.96000 393.363
26.00000 374.955
26.04000 411.969
26.08000 400.488
26.12000 384.557
26.16000 378.815
26.20000 371.585
26.24000 370.166
26.28000 391.148
26.32000 392.932
26.36000 384.326
26.40000 367.839
26.44000 373.951
26.48000 374.573
26.52000 373.175
26.56000 362.606
26.60000 387.730
26.64000 374.310
26.68000 385.213
26.72000 372.382
26.76000 374.211
26.80000 368.394
26.84000 380.923
26.88000 371.581
26.92000 390.049
26.96000 371.922
27.00000 381.313
27.04000 364.475
27.08000 371.031
27.12000 372.028
27.16000 377.899
27.20000 370.591
27.24000 361.099
27.28000 373.459
27.32000 379.376
27.36000 390.886
27.40000 384.946
27.44000 365.874
27.48000 374.897
27.52000 362.900
27.56000 355.358
27.60000 373.127
27.64000 375.665
27.68000 388.444
27.72000 353.085
27.76000 377.771
27.80000 354.331
27.84000 368.936
27.88000 368.236
27.92000 375.107
27.96000 352.525
28.00000 360.963
28.04000 352.423
28.08000 348.934
28.12000 356.559
28.16000 363.552
28.20000 379.947
28.24000 372.318
28.28000 355.012
28.32000 355.706
28.36000 346.065
28.40000 361.559
28.44000 347.515
28.48000 364.318
28.52000 366.612
28.56000 364.812
28.60000 375.863
28.64000 365.495
28.68000 348.879
28.72000 366.340
28.76000 349.315
28.80000 366.422
28.84000 341.331
28.88000 352.290
28.92000 348.200
28.96000 357.344
29.00000 351.475
29.04000 346.951
29.08000 347.098
29.12000 367.197
29.16000 362.482
29.20000 355.974
29.24000 354.203
29.28000 371.584
29.32000 349.638
29.36000 339.340
29.40000 362.519
29.44000 375.043
29.48000 348.744
29.52000 347.580
29.56000 363.710
29.60000 356.170
29.64000 357.176
29.68000 364.621
29.72000 351.568
29.76000 350.276
29.80000 358.230
29.84000 367.408
29.88000 381.044
29.92000 377.293
29.96000 360.460
30.00000 376.613
30.04000 375.605
30.08000 371.363
30.12000 379.726
30.16000 372.556
30.20000 366.395
30.24000 368.430
30.28000 356.053
30.32000 362.288
30.36000 369.453
30.40000 361.330
30.44000 362.525
30.48000 378.753
30.52000 362.094
30.56000 368.200
30.60000 357.245
30.64000 351.174
30.68000 366.093
30.72000 379.797
30.76000 360.999
30.80000 382.582
30.84000 386.705
30.88000 411.339
30.92000 415.530
30.96000 423.025
31.00000 451.612
31.04000 473.059
31.08000 496.026
31.12000 551.746
31.16000 599.152
31.20000 681.476
31.24000 751.191
31.28000 828.138
31.32000 888.094
31.36000 926.414
31.40000 930.014
31.44000 906.407
31.48000 835.490
31.52000 734.432
31.56000 694.967
31.60000 616.815
31.64000 560.857
31.68000 510.072
31.72000 468.782
31.76000 446.244
31.80000 444.942
31.84000 425.570
31.88000 384.120
31.92000 392.383
31.96000 390.443
32.00000 381.265
32.04000 391.536
32.08000 365.466
32.12000 349.861
32.16000 366.270
32.20000 341.373
32.24000 343.482
32.28000 337.983
32.32000 335.319
32.36000 320.928
32.40000 329.196
32.44000 319.258
32.48000 346.765
32.52000 339.762
32.56000 337.194
32.60000 325.111
32.64000 310.097
32.68000 315.170
32.72000 334.359
32.76000 315.378
32.80000 338.633
32.84000 385.841
32.88000 449.475
32.92000 510.517
32.96000 538.572
33.00000 557.739
33.04000 525.954
33.08000 455.286
33.12000 378.110
33.16000 351.666
33.20000 299.339
33.24000 287.353
33.28000 302.316
33.32000 311.170
33.36000 296.195
33.40000 293.504
33.44000 286.939
33.48000 282.465
33.52000 307.459
33.56000 296.436
33.60000 287.826
33.64000 294.425
33.68000 288.113
33.72000 300.097
33.76000 297.778
33.80000 293.001
33.84000 295.958
33.88000 299.096
33.92000 299.043
33.96000 293.097
34.00000 306.693
34.04000 299.680
34.08000 316.332
34.12000 324.246
34.16000 304.322
34.20000 290.069
34.24000 313.403
34.28000 309.429
34.32000 312.649
34.36000 314.177
34.40000 306.219
34.44000 296.483
34.48000 308.853
34.52000 321.343
34.56000 302.139
34.60000 292.397
34.64000 294.493
34.68000 284.012
34.72000 291.476
34.76000 284.135
34.80000 294.881
34.84000 287.206
34.88000 284.967
34.92000 263.293
34.96000 273.605
35.00000 265.552
35.04000 246.199
35.08000 261.858
35.12000 278.527
35.16000 275.125
35.20000 279.017
35.24000 276.075
35.28000 266.389
35.32000 261.487
35.36000 264.757
35.40000 259.159
35.44000 269.580
35.48000 262.714
35.52000 257.810
35.56000 267.546
35.60000 265.915
35.64000 249.366
35.68000 266.689
35.72000 250.757
35.76000 255.095
35.80000 250.582
35.84000 263.574
35.88000 259.022
35.92000 256.063
35.96000 250.551
36.00000 252.835
36.04000 259.664
36.08000 267.046
36.12000 245.506
36.16000 248.412
36.20000 258.072
36.24000 253.210
36.28000 262.812
36.32000 245.288
36.36000 243.652
36.40000 253.192
36.44000 249.118
36.48000 257.227
36.52000 250.050
36.56000 244.820
36.60000 236.795
36.64000 254.066
36.68000 249.064
36.72000 246.089
36.76000 249.440
36.80000 254.247
36.84000 264.391
36.88000 265.425
36.92000 256.753
36.96000 250.703
37.00000 267.451
37.04000 266.662
37.08000 250.301
37.12000 251.213
37.16000 261.783
37.20000 256.466
37.24000 248.143
37.28000 246.871
37.32000 249.058
37.36000 243.333
37.40000 249.869
37.44000 260.749
37.48000 236.268
37.52000 243.622
37.56000 241.772
37.60000 248.355
37.64000 242.755
37.68000 259.592
37.72000 250.296
37.76000 247.118
37.80000 251.922
37.84000 260.290
37.88000 246.973
37.92000 259.163
37.96000 266.710
38.00000 253.003
38.04000 259.244
38.08000 252.989
38.12000 257.449
38.16000 256.505
38.20000 253.595
38.24000 255.497
38.28000 285.200
38.32000 280.378
38.36000 288.414
38.40000 316.021
38.44000 347.497
38.48000 366.836
38.52000 409.605
38.56000 445.929
38.60000 506.837
38.64000 566.602
38.68000 577.757
38.72000 572.728
38.76000 552.729
38.80000 494.761
38.84000 446.930
38.88000 403.821
38.92000 351.082
38.96000 321.002
39.00000 304.080
39.04000 280.548
39.08000 272.944
39.12000 246.143
39.16000 238.984
39.20000 257.066
39.24000 243.379
39.28000 233.997
39.32000 245.731
39.36000 236.682
39.40000 242.037
39.44000 246.538
39.48000 235.519
39.52000 229.376
39.56000 228.796
39.60000 230.349
39.64000 229.125
39.68000 235.792
39.72000 233.700
39.76000 234.467
39.80000 229.035
39.84000 223.447
39.88000 238.800
39.92000 241.744
39.96000 233.282
40.00000 226.547
40.04000 230.647
40.08000 215.615
40.12000 234.166
40.16000 221.209
40.20000 216.461
40.24000 224.856
40.28000 228.244
40.32000 229.016
40.36000 209.297
40.40000 219.823
40.44000 209.996
40.48000 232.970
40.52000 216.259
40.56000 215.639
40.60000 221.198
40.64000 205.247
40.68000 203.662
40.72000 223.442
40.76000 222.489
40.80000 211.725
40.84000 214.587
40.88000 216.405
40.92000 211.559
40.96000 205.127
41.00000 205.469
41.04000 220.315
41.08000 214.260
41.12000 209.893
41.16000 203.150
41.20000 207.314
41.24000 208.705
41.28000 225.629
41.32000 205.230
41.36000 203.594
41.40000 219.263
41.44000 207.792
41.48000 215.096
41.52000 205.709
41.56000 197.863
41.60000 213.607
41.64000 198.483
41.68000 198.644
41.72000 195.332
41.76000 197.113
41.80000 211.947
41.84000 214.449
41.88000 216.298
41.92000 221.566
41.96000 212.402
42.00000 215.256
42.04000 210.282
42.08000 218.241
42.12000 211.861
42.16000 210.074
42.20000 222.302
42.24000 212.027
42.28000 209.093
42.32000 211.854
42.36000 215.473
42.40000 211.396
42.44000 204.295
42.48000 201.783
42.52000 202.072
42.56000 208.840
42.60000 203.213
42.64000 195.204
42.68000 199.834
42.72000 203.960
42.76000 201.477
42.80000 203.560
42.84000 200.141
42.88000 219.343
42.92000 189.003
42.96000 207.330
43.00000 199.995
43.04000 209.003
43.08000 206.846
43.12000 198.120
43.16000 202.933
43.20000 201.135
43.24000 192.543
43.28000 190.737
43.32000 198.423
43.36000 191.346
43.40000 192.109
43.44000 201.945
43.48000 192.253
43.52000 193.819
43.56000 178.449
43.60000 175.157
43.64000 192.611
43.68000 186.593
43.72000 199.809
43.76000 184.703
43.80000 197.743
43.84000 193.717
43.88000 200.217
43.92000 193.340
43.96000 196.970
44.00000 202.156
44.04000 189.616
44.08000 189.195
44.12000 187.867
44.16000 193.919
44.20000 199.119
44.24000 193.265
44.28000 197.969
44.32000 185.410
44.36000 196.803
44.40000 207.766
44.44000 191.462
44.48000 192.554
44.52000 201.157
44.56000 200.288
44.60000 185.129
44.64000 199.318
44.68000 216.279
44.72000 210.653
44.76000 214.052
44.80000 208.201
44.84000 205.128
44.88000 213.856
44.92000 209.881
44.96000 211.319
45.00000 208.404
45.04000 232.679
45.08000 205.312
45.12000 220.881
45.16000 210.745
45.20000 216.302
45.24000 211.691
45.28000 206.285
45.32000 209.224
45.36000 204.907
45.40000 199.330
45.44000 191.006
45.48000 191.494
45.52000 196.180
45.56000 186.775
45.60000 191.865
45.64000 178.641
45.68000 184.836
45.72000 192.939
45.76000 175.348
45.80000 177.439
45.84000 190.806
45.88000 183.765
45.92000 175.798
45.96000 167.682
46.00000 176.874
46.04000 185.321
46.08000 178.599
46.12000 174.291
46.16000 184.923
46.20000 180.505
46.24000 172.676
46.28000 169.723
46.32000 175.248
46.36000 178.467
46.40000 174.558
46.44000 168.347
46.48000 174.191
46.52000 179.558
46.56000 180.854
46.60000 164.684
46.64000 159.920
46.68000 175.605
46.72000 180.201
46.76000 167.970
46.80000 167.065
46.84000 183.699
46.88000 171.411
46.92000 172.435
46.96000 157.877
47.00000 161.653
47.04000 164.907
47.08000 173.702
47.12000 180.871
47.16000 172.846
47.20000 167.191
47.24000 162.229
47.28000 159.658
47.32000 161.550
47.36000 160.631
47.40000 169.531
47.44000 167.513
47.48000 164.952
47.52000 159.691
47.56000 151.963
47.60000 152.831
47.64000 159.913
47.68000 159.438
47.72000 168.902
47.76000 162.273
47.80000 165.952
47.84000 160.273
47.88000 147.781
47.92000 170.805
47.96000 152.774
48.00000 163.507
48.04000 175.719
48.08000 165.231
48.12000 159.667
48.16000 163.147
48.20000 152.715
48.24000 161.544
48.28000 170.641
48.32000 161.858
48.36000 155.572
48.40000 158.300
48.44000 163.817
48.48000 150.882
48.52000 164.311
48.56000 157.958
48.60000 152.601
48.64000 152.931
48.68000 160.893
48.72000 157.822
48.76000 157.620
48.80000 158.170
48.84000 163.865
48.88000 156.218
48.92000 167.752
48.96000 163.563
49.00000 151.832
49.04000 155.771
49.08000 158.532
49.12000 153.301
49.16000 149.604
49.20000 157.448
49.24000 153.952
49.28000 161.969
49.32000 144.543
49.36000 151.013
49.40000 152.423
49.44000 149.154
49.48000 162.034
49.52000 159.053
49.56000 154.891
49.60000 146.855
49.64000 156.690
49.68000 151.026
49.72000 147.926
49.76000 159.938
49.80000 140.370
49.84000 142.706
49.88000 150.178
49.92000 146.837
49.96000 148.671
50.00000 146.604
50.04000 158.293
50.08000 163.254
50.12000 155.597
50.16000 154.582
50.20000 152.052
50.24000 163.119
50.28000 153.324
50.32000 156.294
50.36000 160.662
50.40000 164.938
50.44000 159.679
50.48000 159.173
50.52000 160.559
50.56000 162.286
50.60000 161.274
50.64000 156.946
50.68000 170.850
50.72000 170.707
50.76000 165.900
50.80000 164.738
50.84000 172.783
50.88000 158.536
50.92000 158.419
50.96000 157.174
51.00000 148.190
51.04000 150.580
51.08000 160.476
51.12000 152.780
51.16000 140.034
51.20000 145.360
51.24000 155.047
51.28000 144.290
51.32000 149.072
51.36000 150.344
51.40000 141.635
51.44000 143.203
51.48000 139.240
51.52000 150.092
51.56000 141.667
51.60000 147.131
51.64000 149.119
51.68000 148.866
51.72000 143.620
51.76000 143.322
51.80000 138.808
51.84000 143.385
51.88000 133.008
51.92000 142.305
51.96000 140.584
52.00000 134.939
52.04000 138.717
52.08000 140.605
52.12000 136.967
52.16000 137.585
52.20000 130.044
52.24000 138.189
52.28000 136.840
52.32000 138.733
52.36000 141.890
52.40000 143.752
52.44000 138.170
52.48000 145.759
52.52000 144.548
52.56000 145.079
52.60000 142.255
52.64000 142.084
52.68000 134.568
52.72000 144.268
52.76000 129.541
52.80000 135.378
52.84000 136.316
52.88000 138.192
52.92000 132.242
52.96000 143.121
53.00000 133.964
53.04000 136.206
53.08000 141.136
53.12000 145.619
53.16000 143.953
53.20000 151.639
53.24000 136.258
53.28000 139.216
53.32000 138.923
53.36000 144.906
53.40000 142.254
53.44000 150.957
53.48000 134.592
53.52000 139.020
53.56000 141.611
53.60000 130.685
53.64000 125.578
53.68000 139.730
53.72000 139.622
53.76000 147.481
53.80000 138.072
53.84000 132.078
53.88000 141.450
53.92000 132.259
53.96000 140.815
54.00000 135.340
54.04000 137.519
54.08000 131.301
54.12000 135.287
54.16000 137.212
54.20000 128.538
54.24000 130.631
54.28000 138.943
54.32000 137.017
54.36000 140.903
54.40000 133.790
54.44000 133.375
54.48000 137.907
54.52000 128.102
54.56000 134.083
54.60000 132.591
54.64000 139.665
54.68000 132.307
54.72000 139.891
54.76000 132.958
54.80000 134.538
54.84000 138.778
54.88000 139.940
54.92000 143.496
54.96000 147.439
55.00000 138.211
55.04000 138.693
55.08000 143.323
55.12000 145.988
55.16000 138.367
55.20000 145.975
55.24000 135.831
55.28000 143.048
55.32000 153.636
55.36000 160.621
55.40000 161.967
55.44000 166.064
55.48000 166.646
55.52000 179.826
55.56000 181.738
55.60000 189.637
55.64000 184.609
55.68000 198.451
55.72000 223.411
55.76000 223.092
55.80000 248.599
55.84000 249.598
55.88000 262.730
55.92000 270.104
55.96000 255.726
56.00000 252.145
56.04000 247.303
56.08000 248.928
56.12000 221.574
56.16000 217.162
56.20000 212.501
56.24000 204.658
56.28000 191.660
56.32000 178.902
56.36000 172.787
56.40000 163.878
56.44000 161.047
56.48000 153.610
56.52000 154.148
56.56000 148.693
56.60000 140.975
56.64000 138.811
56.68000 140.645
56.72000 142.073
56.76000 144.306
56.80000 134.962
56.84000 129.769
56.88000 132.242
56.92000 129.073
56.96000 128.387
57.00000 133.448
57.04000 124.717
57.08000 125.754
57.12000 132.516
57.16000 127.889
57.20000 130.585
57.24000 128.971
57.28000 120.149
57.32000 129.938
57.36000 135.787
57.40000 116.614
57.44000 131.964
57.48000 126.453
57.52000 129.680
57.56000 124.281
57.60000 135.542
57.64000 116.730
57.68000 118.022
57.72000 124.583
57.76000 119.525
57.80000 129.473
57.84000 124.021
57.88000 121.215
57.92000 119.088
57.96000 123.706
58.00000 133.056
58.04000 125.163
58.08000 120.485
58.12000 122.430
58.16000 123.018
58.20000 123.941
58.24000 118.160
58.28000 119.209
58.32000 117.345
58.36000 123.301
58.40000 115.369
58.44000 124.415
58.48000 111.436
58.52000 135.367
58.56000 127.589
58.60000 114.054
58.64000 122.093
58.68000 121.754
58.72000 112.670
58.76000 125.077
58.80000 121.491
58.84000 115.431
58.88000 118.841
58.92000 132.594
58.96000 125.262
59.00000 114.393
59.04000 118.005
59.08000 113.086
59.12000 123.881
59.16000 119.898
59.20000 119.904
59.24000 113.452
59.28000 117.200
59.32000 123.385
59.36000 124.635
59.40000 111.027
59.44000 115.535
59.48000 116.079
59.52000 123.112
59.56000 105.462
59.60000 118.129
59.64000 117.791
59.68000 124.166
59.72000 118.498
59.76000 117.677
59.80000 121.693
59.84000 120.091
59.88000 127.688
59.92000 120.965
59.96000 121.587
60.00000 118.638
60.04000 115.104
60.08000 111.550
60.12000 111.821
60.16000 110.608
60.20000 126.673
60.24000 115.236
60.28000 113.042
60.32000 110.921
60.36000 112.420
60.40000 121.678
60.44000 120.307
60.48000 112.223
60.52000 113.007
60.56000 122.489
60.60000 116.903
60.64000 112.335
60.68000 110.387
60.72000 122.686
60.76000 119.438
60.80000 119.646
60.84000 109.783
60.88000 120.941
60.92000 120.261
60.96000 114.732
61.00000 115.309
61.04000 117.429
61.08000 125.878
61.12000 112.927
61.16000 127.185
61.20000 125.467
61.24000 112.883
61.28000 124.261
61.32000 124.405
61.36000 125.731
61.40000 128.132
61.44000 132.749
61.48000 124.722
61.52000 147.122
61.56000 192.863
61.60000 251.416
61.64000 278.936
61.68000 294.356
61.72000 302.384
61.76000 271.381
61.80000 232.087
61.84000 189.991
61.88000 151.826
61.92000 144.462
61.96000 131.282
62.00000 129.605
62.04000 132.917
62.08000 124.188
62.12000 133.431
62.16000 114.097
62.20000 124.047
62.24000 127.001
62.28000 131.236
62.32000 129.513
62.36000 133.055
62.40000 132.790
62.44000 131.998
62.48000 135.633
62.52000 121.164
62.56000 139.447
62.60000 127.351
62.64000 140.855
62.68000 136.039
62.72000 121.678
62.76000 135.517
62.80000 126.559
62.84000 124.960
62.88000 132.187
62.92000 129.533
62.96000 133.384
63.00000 139.881
63.04000 135.855
63.08000 131.496
63.12000 145.780
63.16000 138.153
63.20000 144.080
63.24000 137.976
63.28000 142.026
63.32000 134.816
63.36000 137.757
63.40000 135.693
63.44000 139.379
63.48000 140.209
63.52000 148.757
63.56000 132.106
63.60000 135.822
63.64000 132.146
63.68000 138.002
63.72000 141.065
63.76000 136.989
63.80000 138.466
63.84000 147.626
63.88000 146.923
63.92000 147.022
63.96000 137.150
64.00000 146.850
64.04000 147.735
64.08000 133.451
64.12000 138.465
64.16000 153.398
64.20000 144.756
64.24000 148.840
64.28000 158.051
64.32000 155.062
64.36000 159.280
64.40000 154.691
64.44000 153.583
64.48000 155.855
64.52000 164.290
64.56000 161.479
64.60000 176.549
64.64000 164.443
64.68000 171.753
64.72000 175.179
64.76000 181.075
64.80000 165.939
64.84000 172.980
64.88000 170.067
64.92000 178.840
64.96000 185.750
65.00000 189.229
65.04000 181.551
65.08000 199.336
65.12000 201.494
65.16000 215.418
65.20000 213.538
65.24000 213.291
65.28000 202.021
65.32000 225.368
65.36000 239.572
65.40000 250.013
65.44000 274.251
65.48000 264.417
65.52000 297.209
65.56000 326.632
65.60000 329.649
65.64000 404.216
65.68000 533.813
65.72000 845.882
65.76000 1326.842
65.80000 1771.324
65.84000 1995.470
65.88000 2025.160
65.92000 1923.973
65.96000 1599.044
66.00000 1132.854
66.04000 703.330
66.08000 487.522
66.12000 408.643
66.16000 370.686
66.20000 361.809
66.24000 393.892
66.28000 445.628
66.32000 529.700
66.36000 599.019
66.40000 647.162
66.44000 624.480
66.48000 616.067
66.52000 548.575
66.56000 477.891
66.60000 419.366
66.64000 381.964
66.68000 362.926
66.72000 368.812
66.76000 369.007
66.80000 368.776
66.84000 370.365
66.88000 349.130
66.92000 362.808
66.96000 378.555
67.00000 378.184
67.04000 390.945
67.08000 387.887
67.12000 381.558
67.16000 406.444
67.20000 385.834
67.24000 395.136
67.28000 421.612
67.32000 413.783
67.36000 409.782
67.40000 424.684
67.44000 443.809
67.48000 427.945
67.52000 422.018
67.56000 438.880
67.60000 439.219
67.64000 466.211
67.68000 482.042
67.72000 474.131
67.76000 460.531
67.80000 479.986
67.84000 472.216
67.88000 503.431
67.92000 501.774
67.96000 512.848
68.00000 516.771
68.04000 518.504
68.08000 510.653
68.12000 540.154
68.16000 562.221
68.20000 560.514
68.24000 571.662
68.28000 568.933
68.32000 622.768
68.36000 620.190
68.40000 640.531
68.44000 655.979
68.48000 689.886
68.52000 724.987
68.56000 774.443
68.60000 845.204
68.64000 987.872
68.68000 1133.153
68.72000 1305.963
68.76000 1470.273
68.80000 1641.644
68.84000 1893.994
68.88000 2275.604
68.92000 3241.752
68.96000 8418.887
69.00000 20107.992
69.04000 33700.770
69.08000 41278.918
69.12000 44382.195
69.16000 47216.633
69.20000 47935.809
69.24000 39504.156
69.28000 28745.184
69.32000 23227.740
69.36000 21573.762
69.40000 18575.295
69.44000 12200.468
69.48000 5407.154
69.52000 2355.724
69.56000 1457.419
69.60000 1136.185
69.64000 926.013
69.68000 870.576
69.72000 753.408
69.76000 686.623
69.80000 620.015
69.84000 591.958
69.88000 576.499
69.92000 537.170
69.96000 500.678
70.00000 504.880