File: XRD/XRD/07-10-2025 Dep 6/XY Data/BTO_Mapping_Theta2Theta_07-10-2025_001_26_-8-090_5-878.xy
20.00000 474.511
20.04000 479.943
20.08000 480.352
20.12000 454.389
20.16000 463.749
20.20000 473.691
20.24000 474.392
20.28000 472.750
20.32000 446.372
20.36000 475.932
20.40000 453.832
20.44000 468.499
20.48000 472.685
20.52000 480.569
20.56000 466.977
20.60000 462.306
20.64000 464.289
20.68000 466.489
20.72000 454.550
20.76000 463.924
20.80000 438.493
20.84000 456.654
20.88000 460.374
20.92000 459.382
20.96000 450.825
21.00000 468.150
21.04000 444.274
21.08000 481.004
21.12000 466.227
21.16000 451.941
21.20000 461.727
21.24000 471.025
21.28000 464.996
21.32000 463.213
21.36000 433.820
21.40000 454.716
21.44000 452.227
21.48000 439.401
21.52000 462.754
21.56000 451.961
21.60000 475.733
21.64000 451.697
21.68000 455.731
21.72000 487.666
21.76000 477.359
21.80000 472.857
21.84000 476.832
21.88000 491.751
21.92000 508.662
21.96000 531.440
22.00000 530.840
22.04000 553.173
22.08000 524.176
22.12000 533.704
22.16000 531.711
22.20000 513.126
22.24000 509.767
22.28000 503.591
22.32000 488.845
22.36000 505.746
22.40000 466.367
22.44000 465.818
22.48000 463.421
22.52000 472.497
22.56000 465.102
22.60000 456.852
22.64000 438.741
22.68000 411.107
22.72000 453.620
22.76000 444.935
22.80000 429.464
22.84000 432.823
22.88000 428.286
22.92000 429.216
22.96000 426.574
23.00000 442.707
23.04000 434.112
23.08000 425.473
23.12000 425.873
23.16000 403.979
23.20000 439.924
23.24000 415.143
23.28000 422.303
23.32000 409.531
23.36000 431.980
23.40000 417.303
23.44000 397.646
23.48000 415.492
23.52000 444.175
23.56000 432.074
23.60000 435.050
23.64000 439.368
23.68000 440.416
23.72000 440.563
23.76000 448.966
23.80000 442.281
23.84000 434.393
23.88000 468.130
23.92000 463.805
23.96000 465.923
24.00000 467.919
24.04000 461.139
24.08000 463.109
24.12000 468.642
24.16000 471.048
24.20000 435.645
24.24000 470.788
24.28000 436.280
24.32000 443.070
24.36000 418.826
24.40000 414.617
24.44000 411.139
24.48000 424.338
24.52000 407.575
24.56000 405.973
24.60000 422.682
24.64000 408.594
24.68000 401.820
24.72000 402.554
24.76000 410.786
24.80000 407.389
24.84000 416.104
24.88000 408.647
24.92000 403.833
24.96000 405.033
25.00000 402.196
25.04000 393.330
25.08000 397.320
25.12000 396.490
25.16000 398.002
25.20000 398.930
25.24000 411.979
25.28000 378.379
25.32000 407.145
25.36000 401.997
25.40000 392.863
25.44000 400.518
25.48000 380.542
25.52000 374.817
25.56000 379.998
25.60000 401.965
25.64000 396.163
25.68000 403.879
25.72000 404.446
25.76000 395.284
25.80000 384.566
25.84000 393.429
25.88000 390.672
25.92000 388.765
25.96000 388.609
26.00000 391.840
26.04000 385.347
26.08000 376.414
26.12000 374.712
26.16000 381.709
26.20000 363.750
26.24000 375.892
26.28000 366.808
26.32000 371.969
26.36000 389.051
26.40000 371.172
26.44000 374.441
26.48000 380.824
26.52000 370.584
26.56000 391.631
26.60000 383.115
26.64000 372.662
26.68000 363.560
26.72000 377.143
26.76000 385.633
26.80000 383.913
26.84000 370.175
26.88000 375.743
26.92000 383.736
26.96000 371.984
27.00000 381.039
27.04000 377.486
27.08000 377.604
27.12000 363.761
27.16000 367.790
27.20000 358.777
27.24000 357.394
27.28000 371.203
27.32000 358.810
27.36000 374.428
27.40000 374.958
27.44000 359.898
27.48000 382.299
27.52000 364.650
27.56000 375.640
27.60000 377.272
27.64000 374.273
27.68000 370.977
27.72000 376.284
27.76000 351.840
27.80000 354.059
27.84000 351.557
27.88000 345.106
27.92000 373.212
27.96000 364.652
28.00000 383.663
28.04000 361.869
28.08000 342.007
28.12000 353.715
28.16000 352.456
28.20000 347.380
28.24000 350.632
28.28000 357.913
28.32000 350.074
28.36000 344.476
28.40000 359.026
28.44000 350.384
28.48000 348.640
28.52000 342.888
28.56000 350.658
28.60000 341.709
28.64000 353.865
28.68000 352.815
28.72000 333.349
28.76000 336.735
28.80000 344.098
28.84000 354.520
28.88000 342.853
28.92000 342.926
28.96000 351.356
29.00000 358.518
29.04000 357.557
29.08000 353.360
29.12000 351.215
29.16000 353.673
29.20000 356.155
29.24000 336.408
29.28000 339.534
29.32000 350.256
29.36000 349.241
29.40000 343.198
29.44000 344.400
29.48000 357.979
29.52000 342.941
29.56000 360.618
29.60000 354.977
29.64000 347.661
29.68000 346.523
29.72000 357.970
29.76000 349.211
29.80000 357.327
29.84000 363.275
29.88000 373.044
29.92000 372.700
29.96000 370.940
30.00000 379.820
30.04000 376.023
30.08000 373.997
30.12000 371.763
30.16000 348.039
30.20000 365.719
30.24000 348.847
30.28000 359.186
30.32000 346.949
30.36000 343.762
30.40000 337.816
30.44000 340.036
30.48000 354.916
30.52000 353.085
30.56000 359.530
30.60000 340.183
30.64000 354.436
30.68000 361.732
30.72000 349.998
30.76000 352.889
30.80000 351.760
30.84000 362.425
30.88000 378.067
30.92000 401.164
30.96000 401.404
31.00000 407.276
31.04000 447.151
31.08000 507.559
31.12000 578.706
31.16000 674.592
31.20000 769.124
31.24000 909.134
31.28000 997.256
31.32000 1089.185
31.36000 1159.224
31.40000 1185.865
31.44000 1073.498
31.48000 975.406
31.52000 854.364
31.56000 761.815
31.60000 647.607
31.64000 545.241
31.68000 496.284
31.72000 460.269
31.76000 431.552
31.80000 398.150
31.84000 371.302
31.88000 362.597
31.92000 368.065
31.96000 358.952
32.00000 346.199
32.04000 326.844
32.08000 352.372
32.12000 332.955
32.16000 316.894
32.20000 334.319
32.24000 329.072
32.28000 322.422
32.32000 322.150
32.36000 328.912
32.40000 322.232
32.44000 326.279
32.48000 320.262
32.52000 310.111
32.56000 315.717
32.60000 306.530
32.64000 305.940
32.68000 302.630
32.72000 300.689
32.76000 314.440
32.80000 329.335
32.84000 388.003
32.88000 446.421
32.92000 481.410
32.96000 504.551
33.00000 505.842
33.04000 483.061
33.08000 404.285
33.12000 377.869
33.16000 338.310
33.20000 307.415
33.24000 308.639
33.28000 298.187
33.32000 295.742
33.36000 304.074
33.40000 291.387
33.44000 282.170
33.48000 285.401
33.52000 280.769
33.56000 279.033
33.60000 283.081
33.64000 281.547
33.68000 283.747
33.72000 300.833
33.76000 293.329
33.80000 292.445
33.84000 294.795
33.88000 295.144
33.92000 292.297
33.96000 298.861
34.00000 294.971
34.04000 298.748
34.08000 307.301
34.12000 305.763
34.16000 322.678
34.20000 316.805
34.24000 315.900
34.28000 303.031
34.32000 314.618
34.36000 312.241
34.40000 324.508
34.44000 307.867
34.48000 331.075
34.52000 318.748
34.56000 310.237
34.60000 305.353
34.64000 293.294
34.68000 286.307
34.72000 282.414
34.76000 285.335
34.80000 285.720
34.84000 298.246
34.88000 269.917
34.92000 282.661
34.96000 274.022
35.00000 286.460
35.04000 299.808
35.08000 248.718
35.12000 267.262
35.16000 279.748
35.20000 259.517
35.24000 256.999
35.28000 258.427
35.32000 266.386
35.36000 275.256
35.40000 253.607
35.44000 269.905
35.48000 276.716
35.52000 251.880
35.56000 260.775
35.60000 264.810
35.64000 260.101
35.68000 245.512
35.72000 264.240
35.76000 266.720
35.80000 256.923
35.84000 253.299
35.88000 250.129
35.92000 264.506
35.96000 248.577
36.00000 258.474
36.04000 252.261
36.08000 267.331
36.12000 251.061
36.16000 252.516
36.20000 248.036
36.24000 251.675
36.28000 254.672
36.32000 261.662
36.36000 252.504
36.40000 245.521
36.44000 259.350
36.48000 258.812
36.52000 257.284
36.56000 266.712
36.60000 250.465
36.64000 246.163
36.68000 250.261
36.72000 239.522
36.76000 254.028
36.80000 252.202
36.84000 260.547
36.88000 259.993
36.92000 261.435
36.96000 272.899
37.00000 262.553
37.04000 276.234
37.08000 260.792
37.12000 259.991
37.16000 266.521
37.20000 253.524
37.24000 259.407
37.28000 252.675
37.32000 250.843
37.36000 252.216
37.40000 263.684
37.44000 242.948
37.48000 248.185
37.52000 258.440
37.56000 247.347
37.60000 242.632
37.64000 245.222
37.68000 251.480
37.72000 236.686
37.76000 245.222
37.80000 252.196
37.84000 239.342
37.88000 239.450
37.92000 238.861
37.96000 260.311
38.00000 240.468
38.04000 242.137
38.08000 253.274
38.12000 256.324
38.16000 257.218
38.20000 254.178
38.24000 265.523
38.28000 264.408
38.32000 284.606
38.36000 299.124
38.40000 344.031
38.44000 410.305
38.48000 454.937
38.52000 548.835
38.56000 681.647
38.60000 776.686
38.64000 877.815
38.68000 969.585
38.72000 1010.076
38.76000 1024.875
38.80000 909.037
38.84000 831.213
38.88000 695.768
38.92000 584.372
38.96000 485.399
39.00000 388.145
39.04000 338.648
39.08000 265.364
39.12000 255.314
39.16000 225.456
39.20000 233.420
39.24000 246.493
39.28000 236.856
39.32000 244.693
39.36000 241.559
39.40000 235.073
39.44000 232.945
39.48000 220.300
39.52000 230.095
39.56000 238.218
39.60000 222.070
39.64000 233.603
39.68000 232.848
39.72000 230.555
39.76000 219.997
39.80000 220.742
39.84000 229.627
39.88000 223.665
39.92000 225.528
39.96000 222.377
40.00000 226.397
40.04000 219.861
40.08000 215.214
40.12000 226.224
40.16000 215.576
40.20000 224.332
40.24000 204.528
40.28000 223.266
40.32000 226.140
40.36000 206.935
40.40000 211.233
40.44000 212.617
40.48000 210.057
40.52000 207.965
40.56000 208.646
40.60000 214.853
40.64000 224.208
40.68000 207.015
40.72000 211.213
40.76000 210.150
40.80000 209.215
40.84000 198.046
40.88000 206.686
40.92000 209.690
40.96000 209.042
41.00000 198.833
41.04000 206.757
41.08000 212.789
41.12000 199.900
41.16000 201.982
41.20000 201.253
41.24000 211.162
41.28000 205.846
41.32000 210.524
41.36000 215.218
41.40000 221.383
41.44000 214.069
41.48000 201.410
41.52000 199.587
41.56000 192.812
41.60000 207.065
41.64000 192.919
41.68000 209.808
41.72000 200.213
41.76000 211.091
41.80000 200.056
41.84000 204.839
41.88000 209.453
41.92000 206.620
41.96000 207.765
42.00000 195.218
42.04000 200.120
42.08000 206.839
42.12000 224.076
42.16000 217.841
42.20000 215.934
42.24000 208.564
42.28000 201.858
42.32000 196.566
42.36000 201.030
42.40000 200.957
42.44000 208.737
42.48000 211.296
42.52000 198.483
42.56000 207.587
42.60000 209.866
42.64000 207.861
42.68000 209.101
42.72000 202.195
42.76000 190.680
42.80000 204.487
42.84000 199.892
42.88000 186.208
42.92000 202.880
42.96000 201.793
43.00000 192.952
43.04000 187.812
43.08000 197.860
43.12000 203.715
43.16000 204.204
43.20000 197.335
43.24000 181.106
43.28000 190.259
43.32000 189.296
43.36000 186.071
43.40000 204.309
43.44000 197.201
43.48000 203.351
43.52000 193.555
43.56000 193.498
43.60000 180.579
43.64000 191.604
43.68000 188.476
43.72000 193.367
43.76000 188.492
43.80000 178.093
43.84000 187.079
43.88000 179.447
43.92000 194.981
43.96000 187.761
44.00000 201.409
44.04000 188.254
44.08000 204.527
44.12000 183.324
44.16000 192.419
44.20000 178.380
44.24000 184.549
44.28000 182.826
44.32000 197.087
44.36000 198.740
44.40000 190.980
44.44000 198.379
44.48000 204.240
44.52000 214.323
44.56000 204.002
44.60000 195.270
44.64000 207.085
44.68000 208.265
44.72000 230.434
44.76000 226.644
44.80000 217.195
44.84000 230.767
44.88000 235.095
44.92000 261.325
44.96000 254.670
45.00000 256.537
45.04000 263.366
45.08000 263.798
45.12000 249.284
45.16000 259.283
45.20000 238.451
45.24000 241.184
45.28000 246.264
45.32000 231.443
45.36000 228.638
45.40000 214.488
45.44000 213.955
45.48000 211.619
45.52000 203.856
45.56000 213.657
45.60000 205.013
45.64000 186.176
45.68000 212.555
45.72000 199.300
45.76000 186.405
45.80000 194.427
45.84000 190.012
45.88000 189.343
45.92000 186.773
45.96000 184.332
46.00000 188.528
46.04000 183.244
46.08000 176.436
46.12000 177.250
46.16000 180.127
46.20000 186.392
46.24000 170.598
46.28000 161.897
46.32000 173.460
46.36000 185.662
46.40000 165.517
46.44000 175.268
46.48000 167.693
46.52000 182.204
46.56000 180.498
46.60000 181.418
46.64000 174.508
46.68000 175.869
46.72000 174.016
46.76000 174.671
46.80000 171.474
46.84000 177.082
46.88000 167.177
46.92000 169.419
46.96000 157.428
47.00000 172.231
47.04000 161.593
47.08000 161.011
47.12000 166.856
47.16000 161.961
47.20000 172.960
47.24000 164.430
47.28000 160.631
47.32000 165.798
47.36000 156.818
47.40000 160.959
47.44000 173.323
47.48000 169.692
47.52000 162.342
47.56000 162.095
47.60000 171.523
47.64000 163.712
47.68000 160.919
47.72000 157.340
47.76000 146.077
47.80000 162.877
47.84000 156.296
47.88000 163.295
47.92000 146.890
47.96000 153.281
48.00000 151.885
48.04000 160.900
48.08000 153.348
48.12000 155.198
48.16000 159.911
48.20000 155.808
48.24000 143.627
48.28000 156.157
48.32000 144.211
48.36000 148.940
48.40000 156.376
48.44000 156.755
48.48000 159.423
48.52000 148.075
48.56000 157.814
48.60000 154.065
48.64000 160.448
48.68000 148.472
48.72000 153.352
48.76000 149.717
48.80000 156.344
48.84000 155.471
48.88000 152.385
48.92000 149.407
48.96000 149.059
49.00000 152.638
49.04000 159.289
49.08000 153.283
49.12000 156.053
49.16000 170.300
49.20000 154.783
49.24000 158.485
49.28000 155.994
49.32000 137.247
49.36000 148.889
49.40000 148.722
49.44000 152.937
49.48000 152.504
49.52000 152.543
49.56000 146.390
49.60000 149.263
49.64000 154.833
49.68000 151.697
49.72000 143.416
49.76000 145.306
49.80000 151.954
49.84000 152.561
49.88000 151.597
49.92000 140.554
49.96000 147.002
50.00000 144.208
50.04000 159.647
50.08000 150.753
50.12000 155.761
50.16000 146.937
50.20000 157.706
50.24000 156.553
50.28000 156.896
50.32000 158.153
50.36000 160.503
50.40000 165.696
50.44000 159.396
50.48000 162.692
50.52000 163.961
50.56000 177.755
50.60000 164.575
50.64000 170.888
50.68000 177.505
50.72000 166.946
50.76000 165.801
50.80000 170.685
50.84000 175.543
50.88000 176.255
50.92000 155.116
50.96000 153.890
51.00000 156.997
51.04000 152.328
51.08000 143.860
51.12000 146.193
51.16000 157.852
51.20000 146.478
51.24000 147.193
51.28000 152.333
51.32000 133.604
51.36000 133.790
51.40000 153.648
51.44000 141.268
51.48000 150.058
51.52000 139.056
51.56000 147.629
51.60000 144.150
51.64000 139.551
51.68000 145.139
51.72000 132.215
51.76000 145.156
51.80000 144.787
51.84000 141.940
51.88000 135.495
51.92000 146.837
51.96000 142.995
52.00000 137.601
52.04000 142.174
52.08000 143.377
52.12000 144.532
52.16000 142.055
52.20000 141.308
52.24000 135.611
52.28000 133.615
52.32000 130.648
52.36000 140.794
52.40000 136.269
52.44000 140.107
52.48000 134.024
52.52000 136.595
52.56000 133.105
52.60000 139.556
52.64000 134.690
52.68000 131.448
52.72000 153.323
52.76000 129.512
52.80000 140.210
52.84000 134.536
52.88000 139.430
52.92000 133.027
52.96000 130.748
53.00000 134.710
53.04000 127.825
53.08000 130.166
53.12000 156.495
53.16000 145.791
53.20000 141.180
53.24000 155.992
53.28000 147.640
53.32000 152.609
53.36000 150.243
53.40000 152.845
53.44000 145.613
53.48000 155.753
53.52000 158.937
53.56000 142.673
53.60000 150.233
53.64000 148.095
53.68000 136.648
53.72000 143.453
53.76000 140.663
53.80000 142.230
53.84000 142.244
53.88000 135.144
53.92000 146.361
53.96000 143.669
54.00000 133.672
54.04000 130.120
54.08000 136.516
54.12000 136.326
54.16000 138.952
54.20000 133.334
54.24000 139.008
54.28000 124.893
54.32000 134.146
54.36000 141.540
54.40000 132.956
54.44000 136.771
54.48000 143.401
54.52000 137.948
54.56000 133.766
54.60000 136.142
54.64000 140.060
54.68000 132.511
54.72000 144.572
54.76000 137.174
54.80000 134.154
54.84000 136.246
54.88000 141.713
54.92000 128.846
54.96000 148.331
55.00000 137.815
55.04000 153.300
55.08000 157.918
55.12000 146.424
55.16000 151.796
55.20000 153.351
55.24000 151.697
55.28000 148.392
55.32000 161.387
55.36000 159.450
55.40000 171.797
55.44000 173.711
55.48000 176.895
55.52000 204.171
55.56000 216.858
55.60000 250.704
55.64000 275.736
55.68000 321.169
55.72000 388.121
55.76000 416.107
55.80000 478.869
55.84000 544.616
55.88000 583.827
55.92000 593.066
55.96000 593.917
56.00000 598.209
56.04000 548.827
56.08000 527.907
56.12000 463.322
56.16000 408.795
56.20000 344.820
56.24000 294.807
56.28000 262.794
56.32000 230.891
56.36000 210.698
56.40000 195.407
56.44000 181.035
56.48000 162.121
56.52000 158.004
56.56000 149.900
56.60000 137.638
56.64000 133.356
56.68000 132.039
56.72000 147.175
56.76000 134.039
56.80000 132.886
56.84000 136.125
56.88000 130.033
56.92000 125.331
56.96000 128.418
57.00000 129.147
57.04000 124.575
57.08000 124.958
57.12000 135.920
57.16000 128.101
57.20000 129.973
57.24000 132.784
57.28000 121.515
57.32000 120.140
57.36000 132.211
57.40000 134.876
57.44000 135.320
57.48000 129.695
57.52000 130.751
57.56000 131.681
57.60000 121.699
57.64000 122.750
57.68000 123.165
57.72000 119.350
57.76000 118.903
57.80000 126.471
57.84000 123.889
57.88000 116.219
57.92000 128.338
57.96000 130.526
58.00000 127.068
58.04000 128.657
58.08000 128.817
58.12000 132.086
58.16000 119.029
58.20000 115.795
58.24000 122.917
58.28000 122.379
58.32000 113.284
58.36000 116.783
58.40000 119.396
58.44000 118.782
58.48000 119.615
58.52000 119.334
58.56000 119.191
58.60000 113.782
58.64000 103.260
58.68000 116.976
58.72000 126.994
58.76000 124.719
58.80000 113.484
58.84000 108.820
58.88000 124.318
58.92000 112.470
58.96000 116.788
59.00000 117.323
59.04000 119.810
59.08000 123.062
59.12000 115.335
59.16000 117.673
59.20000 109.041
59.24000 124.258
59.28000 126.579
59.32000 119.420
59.36000 122.462
59.40000 124.340
59.44000 117.911
59.48000 125.275
59.52000 113.362
59.56000 118.264
59.60000 117.918
59.64000 126.557
59.68000 113.659
59.72000 123.611
59.76000 118.339
59.80000 119.588
59.84000 122.250
59.88000 118.961
59.92000 123.056
59.96000 115.436
60.00000 121.412
60.04000 116.826
60.08000 106.321
60.12000 118.711
60.16000 119.338
60.20000 107.754
60.24000 110.367
60.28000 118.110
60.32000 119.820
60.36000 109.630
60.40000 111.248
60.44000 115.252
60.48000 111.337
60.52000 118.453
60.56000 116.183
60.60000 113.555
60.64000 113.183
60.68000 114.282
60.72000 118.105
60.76000 118.188
60.80000 119.163
60.84000 116.871
60.88000 115.300
60.92000 111.782
60.96000 121.658
61.00000 112.111
61.04000 119.333
61.08000 118.937
61.12000 131.238
61.16000 122.904
61.20000 120.688
61.24000 125.969
61.28000 117.303
61.32000 107.517
61.36000 123.473
61.40000 120.232
61.44000 129.818
61.48000 131.456
61.52000 158.713
61.56000 207.906
61.60000 250.119
61.64000 270.016
61.68000 303.084
61.72000 293.345
61.76000 253.592
61.80000 220.259
61.84000 161.819
61.88000 138.711
61.92000 134.968
61.96000 127.634
62.00000 126.764
62.04000 136.828
62.08000 125.288
62.12000 116.902
62.16000 123.228
62.20000 124.768
62.24000 129.537
62.28000 129.213
62.32000 123.359
62.36000 126.254
62.40000 128.775
62.44000 126.128
62.48000 137.316
62.52000 124.318
62.56000 125.462
62.60000 124.593
62.64000 119.654
62.68000 110.658
62.72000 123.821
62.76000 116.401
62.80000 130.301
62.84000 128.947
62.88000 119.258
62.92000 129.639
62.96000 123.095
63.00000 123.941
63.04000 126.942
63.08000 131.854
63.12000 126.569
63.16000 128.221
63.20000 130.854
63.24000 128.860
63.28000 128.266
63.32000 140.771
63.36000 125.937
63.40000 128.949
63.44000 134.113
63.48000 131.473
63.52000 127.859
63.56000 141.853
63.60000 135.494
63.64000 137.788
63.68000 134.335
63.72000 142.947
63.76000 135.811
63.80000 140.528
63.84000 143.410
63.88000 141.938
63.92000 138.242
63.96000 129.881
64.00000 146.065
64.04000 149.783
64.08000 140.952
64.12000 143.962
64.16000 148.407
64.20000 149.746
64.24000 137.545
64.28000 143.733
64.32000 143.564
64.36000 145.865
64.40000 154.520
64.44000 151.117
64.48000 154.290
64.52000 162.325
64.56000 153.799
64.60000 163.936
64.64000 161.470
64.68000 161.308
64.72000 170.013
64.76000 168.642
64.80000 160.242
64.84000 158.313
64.88000 180.196
64.92000 180.959
64.96000 185.443
65.00000 188.254
65.04000 193.038
65.08000 219.701
65.12000 199.823
65.16000 205.939
65.20000 204.961
65.24000 208.885
65.28000 248.351
65.32000 250.032
65.36000 244.758
65.40000 237.816
65.44000 268.402
65.48000 296.153
65.52000 312.627
65.56000 324.608
65.60000 358.234
65.64000 417.941
65.68000 587.273
65.72000 930.164
65.76000 1438.164
65.80000 1828.582
65.84000 1965.097
65.88000 1979.031
65.92000 1910.932
65.96000 1534.623
66.00000 998.793
66.04000 636.476
66.08000 453.051
66.12000 388.668
66.16000 384.576
66.20000 379.751
66.24000 383.147
66.28000 452.396
66.32000 562.112
66.36000 624.177
66.40000 611.552
66.44000 627.062
66.48000 599.087
66.52000 510.307
66.56000 446.215
66.60000 394.282
66.64000 345.878
66.68000 344.979
66.72000 341.814
66.76000 343.782
66.80000 344.925
66.84000 343.155
66.88000 352.452
66.92000 375.274
66.96000 367.180
67.00000 356.963
67.04000 365.782
67.08000 367.972
67.12000 385.040
67.16000 381.006
67.20000 378.143
67.24000 403.891
67.28000 400.002
67.32000 401.239
67.36000 419.808
67.40000 410.998
67.44000 420.666
67.48000 423.203
67.52000 408.747
67.56000 430.449
67.60000 432.215
67.64000 432.741
67.68000 443.381
67.72000 452.414
67.76000 458.513
67.80000 446.534
67.84000 469.360
67.88000 459.978
67.92000 477.238
67.96000 496.797
68.00000 500.726
68.04000 487.649
68.08000 518.441
68.12000 541.167
68.16000 533.969
68.20000 539.044
68.24000 553.984
68.28000 554.919
68.32000 588.026
68.36000 585.421
68.40000 644.978
68.44000 666.653
68.48000 665.148
68.52000 730.298
68.56000 760.873
68.60000 824.583
68.64000 958.834
68.68000 1151.907
68.72000 1302.298
68.76000 1463.899
68.80000 1595.362
68.84000 1855.859
68.88000 2307.870
68.92000 3556.433
68.96000 10060.642
69.00000 22489.449
69.04000 34820.980
69.08000 41067.500
69.12000 43987.230
69.16000 46791.531
69.20000 45743.066
69.24000 36041.238
69.28000 26917.229
69.32000 22183.029
69.36000 20641.170
69.40000 16960.211
69.44000 10240.560
69.48000 4649.842
69.52000 2060.125
69.56000 1324.060
69.60000 1064.786
69.64000 885.848
69.68000 797.833
69.72000 713.579
69.76000 649.534
69.80000 610.172
69.84000 584.593
69.88000 545.350
69.92000 537.322
69.96000 511.332
70.00000 509.558