File: XRD/XRD/07-10-2025 Dep 6/XY Data/BTO_Mapping_Theta2Theta_07-10-2025_001_52_9-271_-28-532.xy
20.00000 484.135
20.04000 481.307
20.08000 459.431
20.12000 478.345
20.16000 460.776
20.20000 482.737
20.24000 450.371
20.28000 474.114
20.32000 463.586
20.36000 474.437
20.40000 461.693
20.44000 459.638
20.48000 458.035
20.52000 472.226
20.56000 458.435
20.60000 465.941
20.64000 453.694
20.68000 476.006
20.72000 463.394
20.76000 455.076
20.80000 470.806
20.84000 457.213
20.88000 480.473
20.92000 447.323
20.96000 454.207
21.00000 477.800
21.04000 453.137
21.08000 452.001
21.12000 451.967
21.16000 461.379
21.20000 458.719
21.24000 452.357
21.28000 442.534
21.32000 446.317
21.36000 469.551
21.40000 452.894
21.44000 455.816
21.48000 461.139
21.52000 465.160
21.56000 450.952
21.60000 461.066
21.64000 454.597
21.68000 469.972
21.72000 464.684
21.76000 472.802
21.80000 472.895
21.84000 477.982
21.88000 498.753
21.92000 479.920
21.96000 510.563
22.00000 503.067
22.04000 517.686
22.08000 525.057
22.12000 508.796
22.16000 502.346
22.20000 502.285
22.24000 493.222
22.28000 493.921
22.32000 503.174
22.36000 503.543
22.40000 465.598
22.44000 461.986
22.48000 449.100
22.52000 435.482
22.56000 446.034
22.60000 443.481
22.64000 446.045
22.68000 439.915
22.72000 452.072
22.76000 437.567
22.80000 440.628
22.84000 444.544
22.88000 441.235
22.92000 454.479
22.96000 451.626
23.00000 435.661
23.04000 425.921
23.08000 416.734
23.12000 443.192
23.16000 423.484
23.20000 416.235
23.24000 421.454
23.28000 427.028
23.32000 435.895
23.36000 445.250
23.40000 409.869
23.44000 419.465
23.48000 437.308
23.52000 448.958
23.56000 442.289
23.60000 431.036
23.64000 436.549
23.68000 451.923
23.72000 467.103
23.76000 474.245
23.80000 478.268
23.84000 479.800
23.88000 494.848
23.92000 495.373
23.96000 522.883
24.00000 502.660
24.04000 520.409
24.08000 502.198
24.12000 486.835
24.16000 468.635
24.20000 471.518
24.24000 454.234
24.28000 452.972
24.32000 438.530
24.36000 441.603
24.40000 415.234
24.44000 440.428
24.48000 400.720
24.52000 410.244
24.56000 412.814
24.60000 416.815
24.64000 420.154
24.68000 430.176
24.72000 407.243
24.76000 399.016
24.80000 415.832
24.84000 407.038
24.88000 388.856
24.92000 403.138
24.96000 409.902
25.00000 410.676
25.04000 395.366
25.08000 421.803
25.12000 412.649
25.16000 406.633
25.20000 383.710
25.24000 393.184
25.28000 418.973
25.32000 405.459
25.36000 418.895
25.40000 403.250
25.44000 405.185
25.48000 393.054
25.52000 391.764
25.56000 390.311
25.60000 380.288
25.64000 398.744
25.68000 400.032
25.72000 393.994
25.76000 407.157
25.80000 378.317
25.84000 375.933
25.88000 387.957
25.92000 381.796
25.96000 383.586
26.00000 369.859
26.04000 378.922
26.08000 374.860
26.12000 392.374
26.16000 394.555
26.20000 396.252
26.24000 390.596
26.28000 372.818
26.32000 373.886
26.36000 386.856
26.40000 398.425
26.44000 374.211
26.48000 381.340
26.52000 383.661
26.56000 392.157
26.60000 374.527
26.64000 377.867
26.68000 387.957
26.72000 380.234
26.76000 363.651
26.80000 379.173
26.84000 362.154
26.88000 385.784
26.92000 380.263
26.96000 374.646
27.00000 378.250
27.04000 367.270
27.08000 363.943
27.12000 363.930
27.16000 382.533
27.20000 369.524
27.24000 368.389
27.28000 367.474
27.32000 375.930
27.36000 374.722
27.40000 367.629
27.44000 370.258
27.48000 358.380
27.52000 370.433
27.56000 381.620
27.60000 367.922
27.64000 365.849
27.68000 369.730
27.72000 385.071
27.76000 366.939
27.80000 351.822
27.84000 367.610
27.88000 361.882
27.92000 370.197
27.96000 356.049
28.00000 363.047
28.04000 355.499
28.08000 347.137
28.12000 356.057
28.16000 347.140
28.20000 369.121
28.24000 358.621
28.28000 365.272
28.32000 370.531
28.36000 370.718
28.40000 360.805
28.44000 348.568
28.48000 350.691
28.52000 357.839
28.56000 351.006
28.60000 352.879
28.64000 347.894
28.68000 351.433
28.72000 352.085
28.76000 344.343
28.80000 350.886
28.84000 338.752
28.88000 349.520
28.92000 349.176
28.96000 346.295
29.00000 353.499
29.04000 348.293
29.08000 356.959
29.12000 356.920
29.16000 338.844
29.20000 346.524
29.24000 355.122
29.28000 357.359
29.32000 347.445
29.36000 353.542
29.40000 358.972
29.44000 367.115
29.48000 338.223
29.52000 356.039
29.56000 339.037
29.60000 356.147
29.64000 358.663
29.68000 350.135
29.72000 351.757
29.76000 368.603
29.80000 357.057
29.84000 355.678
29.88000 361.957
29.92000 373.786
29.96000 371.634
30.00000 367.649
30.04000 382.688
30.08000 369.739
30.12000 398.114
30.16000 375.367
30.20000 366.321
30.24000 373.608
30.28000 378.351
30.32000 356.190
30.36000 365.729
30.40000 359.453
30.44000 349.775
30.48000 358.604
30.52000 365.352
30.56000 365.340
30.60000 373.933
30.64000 354.048
30.68000 367.330
30.72000 381.274
30.76000 377.725
30.80000 387.276
30.84000 389.689
30.88000 388.580
30.92000 400.702
30.96000 421.464
31.00000 474.721
31.04000 492.510
31.08000 546.135
31.12000 633.174
31.16000 715.218
31.20000 801.907
31.24000 933.371
31.28000 1062.726
31.32000 1122.000
31.36000 1217.142
31.40000 1244.536
31.44000 1215.629
31.48000 1099.888
31.52000 1016.092
31.56000 869.640
31.60000 759.615
31.64000 635.252
31.68000 564.643
31.72000 506.654
31.76000 446.454
31.80000 414.913
31.84000 386.345
31.88000 388.122
31.92000 369.741
31.96000 357.821
32.00000 364.619
32.04000 357.039
32.08000 346.887
32.12000 332.733
32.16000 338.822
32.20000 332.280
32.24000 338.000
32.28000 353.019
32.32000 343.207
32.36000 325.754
32.40000 329.590
32.44000 322.504
32.48000 328.305
32.52000 311.903
32.56000 334.498
32.60000 332.457
32.64000 319.439
32.68000 313.993
32.72000 312.029
32.76000 323.529
32.80000 342.782
32.84000 383.970
32.88000 451.169
32.92000 466.872
32.96000 501.837
33.00000 502.378
33.04000 489.308
33.08000 440.203
33.12000 374.090
33.16000 344.748
33.20000 301.557
33.24000 304.924
33.28000 305.725
33.32000 288.489
33.36000 290.857
33.40000 295.202
33.44000 298.582
33.48000 296.885
33.52000 288.921
33.56000 307.393
33.60000 286.660
33.64000 294.264
33.68000 283.754
33.72000 290.696
33.76000 292.041
33.80000 305.268
33.84000 305.748
33.88000 300.649
33.92000 305.226
33.96000 288.341
34.00000 300.810
34.04000 321.407
34.08000 322.504
34.12000 313.364
34.16000 348.865
34.20000 324.040
34.24000 334.145
34.28000 328.816
34.32000 330.079
34.36000 336.338
34.40000 340.000
34.44000 323.280
34.48000 325.126
34.52000 321.625
34.56000 318.208
34.60000 300.851
34.64000 307.252
34.68000 299.976
34.72000 292.951
34.76000 297.388
34.80000 293.780
34.84000 284.357
34.88000 282.168
34.92000 280.202
34.96000 273.121
35.00000 275.924
35.04000 284.137
35.08000 265.325
35.12000 254.167
35.16000 281.746
35.20000 267.296
35.24000 258.785
35.28000 258.187
35.32000 266.596
35.36000 274.785
35.40000 275.004
35.44000 256.020
35.48000 266.640
35.52000 265.368
35.56000 270.145
35.60000 260.254
35.64000 260.591
35.68000 261.118
35.72000 264.992
35.76000 264.069
35.80000 268.656
35.84000 256.032
35.88000 246.038
35.92000 266.967
35.96000 262.236
36.00000 261.070
36.04000 252.843
36.08000 256.045
36.12000 266.965
36.16000 261.816
36.20000 266.514
36.24000 249.020
36.28000 261.503
36.32000 271.689
36.36000 248.183
36.40000 257.285
36.44000 251.840
36.48000 253.675
36.52000 238.079
36.56000 250.523
36.60000 255.803
36.64000 260.938
36.68000 253.252
36.72000 255.982
36.76000 248.243
36.80000 251.521
36.84000 265.157
36.88000 268.304
36.92000 264.968
36.96000 274.263
37.00000 269.451
37.04000 260.053
37.08000 277.260
37.12000 280.074
37.16000 264.804
37.20000 261.370
37.24000 244.878
37.28000 252.032
37.32000 264.408
37.36000 273.151
37.40000 251.828
37.44000 251.170
37.48000 258.453
37.52000 239.693
37.56000 254.442
37.60000 245.608
37.64000 265.218
37.68000 244.346
37.72000 259.121
37.76000 241.101
37.80000 252.402
37.84000 261.216
37.88000 246.895
37.92000 244.812
37.96000 252.262
38.00000 246.398
38.04000 263.464
38.08000 261.226
38.12000 255.513
38.16000 274.174
38.20000 259.491
38.24000 258.700
38.28000 265.065
38.32000 280.100
38.36000 302.024
38.40000 316.404
38.44000 348.161
38.48000 430.098
38.52000 494.501
38.56000 575.838
38.60000 707.611
38.64000 792.624
38.68000 878.131
38.72000 900.006
38.76000 896.766
38.80000 861.993
38.84000 766.671
38.88000 651.888
38.92000 555.245
38.96000 446.737
39.00000 383.984
39.04000 310.966
39.08000 291.769
39.12000 265.315
39.16000 258.244
39.20000 246.941
39.24000 247.994
39.28000 235.906
39.32000 248.112
39.36000 231.125
39.40000 251.056
39.44000 238.034
39.48000 233.678
39.52000 240.096
39.56000 235.317
39.60000 237.775
39.64000 222.599
39.68000 232.812
39.72000 224.487
39.76000 234.226
39.80000 228.457
39.84000 239.842
39.88000 233.963
39.92000 232.365
39.96000 231.496
40.00000 221.531
40.04000 238.263
40.08000 226.433
40.12000 217.029
40.16000 227.459
40.20000 227.197
40.24000 216.358
40.28000 214.293
40.32000 219.683
40.36000 225.206
40.40000 224.288
40.44000 211.440
40.48000 229.351
40.52000 212.086
40.56000 211.168
40.60000 225.863
40.64000 215.697
40.68000 217.757
40.72000 225.852
40.76000 219.958
40.80000 213.427
40.84000 203.737
40.88000 200.274
40.92000 208.580
40.96000 211.523
41.00000 211.834
41.04000 219.317
41.08000 222.953
41.12000 205.281
41.16000 213.262
41.20000 208.971
41.24000 207.238
41.28000 205.109
41.32000 215.966
41.36000 204.425
41.40000 200.302
41.44000 196.247
41.48000 214.177
41.52000 214.640
41.56000 205.673
41.60000 206.966
41.64000 199.965
41.68000 193.877
41.72000 216.329
41.76000 201.148
41.80000 199.413
41.84000 213.197
41.88000 213.510
41.92000 217.471
41.96000 212.207
42.00000 206.256
42.04000 211.731
42.08000 219.752
42.12000 210.288
42.16000 213.610
42.20000 212.494
42.24000 208.163
42.28000 221.277
42.32000 209.214
42.36000 211.931
42.40000 214.515
42.44000 223.421
42.48000 215.851
42.52000 228.383
42.56000 204.239
42.60000 217.136
42.64000 211.422
42.68000 207.732
42.72000 222.392
42.76000 216.469
42.80000 210.100
42.84000 201.219
42.88000 201.006
42.92000 198.049
42.96000 192.317
43.00000 201.918
43.04000 211.266
43.08000 205.329
43.12000 198.075
43.16000 206.850
43.20000 192.429
43.24000 199.319
43.28000 192.671
43.32000 187.384
43.36000 198.016
43.40000 192.821
43.44000 198.057
43.48000 188.771
43.52000 185.609
43.56000 188.397
43.60000 193.258
43.64000 195.112
43.68000 196.602
43.72000 196.927
43.76000 185.943
43.80000 195.899
43.84000 185.983
43.88000 183.594
43.92000 186.604
43.96000 183.352
44.00000 187.537
44.04000 189.791
44.08000 206.183
44.12000 193.259
44.16000 183.977
44.20000 189.118
44.24000 188.347
44.28000 197.119
44.32000 189.685
44.36000 205.019
44.40000 198.549
44.44000 206.462
44.48000 201.313
44.52000 199.055
44.56000 211.325
44.60000 214.038
44.64000 208.413
44.68000 207.171
44.72000 221.602
44.76000 218.499
44.80000 220.062
44.84000 221.337
44.88000 231.961
44.92000 231.521
44.96000 238.378
45.00000 244.891
45.04000 234.380
45.08000 239.205
45.12000 236.987
45.16000 240.801
45.20000 230.388
45.24000 231.806
45.28000 225.574
45.32000 218.288
45.36000 215.863
45.40000 214.179
45.44000 206.973
45.48000 212.078
45.52000 204.734
45.56000 199.217
45.60000 207.021
45.64000 205.260
45.68000 192.771
45.72000 189.104
45.76000 188.338
45.80000 180.473
45.84000 189.774
45.88000 174.075
45.92000 177.419
45.96000 187.899
46.00000 184.277
46.04000 189.707
46.08000 181.211
46.12000 184.247
46.16000 182.608
46.20000 170.045
46.24000 170.512
46.28000 175.756
46.32000 168.732
46.36000 171.246
46.40000 171.033
46.44000 174.260
46.48000 169.872
46.52000 165.401
46.56000 161.711
46.60000 171.665
46.64000 167.232
46.68000 169.810
46.72000 175.714
46.76000 178.379
46.80000 179.504
46.84000 159.935
46.88000 160.877
46.92000 169.662
46.96000 169.108
47.00000 158.806
47.04000 167.131
47.08000 168.774
47.12000 172.643
47.16000 164.809
47.20000 162.331
47.24000 165.192
47.28000 157.660
47.32000 162.261
47.36000 158.087
47.40000 153.367
47.44000 156.780
47.48000 157.540
47.52000 169.630
47.56000 166.917
47.60000 151.622
47.64000 165.803
47.68000 157.352
47.72000 166.247
47.76000 165.384
47.80000 150.096
47.84000 160.986
47.88000 164.608
47.92000 149.296
47.96000 160.926
48.00000 161.761
48.04000 156.009
48.08000 156.708
48.12000 155.296
48.16000 159.102
48.20000 151.990
48.24000 149.265
48.28000 158.756
48.32000 171.554
48.36000 166.029
48.40000 155.891
48.44000 154.297
48.48000 168.584
48.52000 160.149
48.56000 149.852
48.60000 157.311
48.64000 157.487
48.68000 158.933
48.72000 148.573
48.76000 164.820
48.80000 158.497
48.84000 155.335
48.88000 150.128
48.92000 166.908
48.96000 159.874
49.00000 161.022
49.04000 153.789
49.08000 143.365
49.12000 150.509
49.16000 162.453
49.20000 155.594
49.24000 161.524
49.28000 154.269
49.32000 160.208
49.36000 154.948
49.40000 157.084
49.44000 147.926
49.48000 154.987
49.52000 147.941
49.56000 165.675
49.60000 153.410
49.64000 146.670
49.68000 158.605
49.72000 157.450
49.76000 158.716
49.80000 149.583
49.84000 151.900
49.88000 148.350
49.92000 148.824
49.96000 139.176
50.00000 150.532
50.04000 145.024
50.08000 139.454
50.12000 143.073
50.16000 153.057
50.20000 152.850
50.24000 157.167
50.28000 159.329
50.32000 158.396
50.36000 149.144
50.40000 153.054
50.44000 151.413
50.48000 161.846
50.52000 162.981
50.56000 158.965
50.60000 156.838
50.64000 162.335
50.68000 159.881
50.72000 161.446
50.76000 158.698
50.80000 156.126
50.84000 153.006
50.88000 166.095
50.92000 163.120
50.96000 161.914
51.00000 153.695
51.04000 161.664
51.08000 154.103
51.12000 152.841
51.16000 149.918
51.20000 145.393
51.24000 153.461
51.28000 149.340
51.32000 141.920
51.36000 149.585
51.40000 137.951
51.44000 145.533
51.48000 134.288
51.52000 142.654
51.56000 154.493
51.60000 144.793
51.64000 134.790
51.68000 140.085
51.72000 142.489
51.76000 131.060
51.80000 137.148
51.84000 130.853
51.88000 140.595
51.92000 143.972
51.96000 140.917
52.00000 133.041
52.04000 137.078
52.08000 141.195
52.12000 132.976
52.16000 132.463
52.20000 133.845
52.24000 142.975
52.28000 140.903
52.32000 132.875
52.36000 134.146
52.40000 125.299
52.44000 141.595
52.48000 153.487
52.52000 145.222
52.56000 139.865
52.60000 130.519
52.64000 123.698
52.68000 135.423
52.72000 135.410
52.76000 144.319
52.80000 144.037
52.84000 137.978
52.88000 139.858
52.92000 142.837
52.96000 138.150
53.00000 144.108
53.04000 147.117
53.08000 139.078
53.12000 140.045
53.16000 152.283
53.20000 139.990
53.24000 137.565
53.28000 139.611
53.32000 149.445
53.36000 145.496
53.40000 153.906
53.44000 156.660
53.48000 152.448
53.52000 159.340
53.56000 142.866
53.60000 143.588
53.64000 138.088
53.68000 143.709
53.72000 150.298
53.76000 141.277
53.80000 142.044
53.84000 153.358
53.88000 142.317
53.92000 143.859
53.96000 143.827
54.00000 136.972
54.04000 135.005
54.08000 142.851
54.12000 136.523
54.16000 134.882
54.20000 136.480
54.24000 139.216
54.28000 136.711
54.32000 138.998
54.36000 141.210
54.40000 139.820
54.44000 142.725
54.48000 136.854
54.52000 137.731
54.56000 137.899
54.60000 142.555
54.64000 139.958
54.68000 137.701
54.72000 137.779
54.76000 146.208
54.80000 140.425
54.84000 148.692
54.88000 143.944
54.92000 152.139
54.96000 134.048
55.00000 141.530
55.04000 144.833
55.08000 137.872
55.12000 148.187
55.16000 146.183
55.20000 143.185
55.24000 152.848
55.28000 155.367
55.32000 145.142
55.36000 162.005
55.40000 170.954
55.44000 167.466
55.48000 192.477
55.52000 202.471
55.56000 221.391
55.60000 245.890
55.64000 255.144
55.68000 301.713
55.72000 353.002
55.76000 370.978
55.80000 418.297
55.84000 453.779
55.88000 495.646
55.92000 521.707
55.96000 538.856
56.00000 507.293
56.04000 495.639
56.08000 453.232
56.12000 432.591
56.16000 382.812
56.20000 336.613
56.24000 294.761
56.28000 251.538
56.32000 231.006
56.36000 199.904
56.40000 200.971
56.44000 167.907
56.48000 167.692
56.52000 156.089
56.56000 161.415
56.60000 139.534
56.64000 156.334
56.68000 138.036
56.72000 137.414
56.76000 138.802
56.80000 146.850
56.84000 136.733
56.88000 133.839
56.92000 134.029
56.96000 143.733
57.00000 136.535
57.04000 132.232
57.08000 129.042
57.12000 120.006
57.16000 133.592
57.20000 144.004
57.24000 126.228
57.28000 123.295
57.32000 128.156
57.36000 132.222
57.40000 124.963
57.44000 126.964
57.48000 135.422
57.52000 126.791
57.56000 128.287
57.60000 115.882
57.64000 121.631
57.68000 124.494
57.72000 128.941
57.76000 132.748
57.80000 130.891
57.84000 118.945
57.88000 126.905
57.92000 122.765
57.96000 121.205
58.00000 115.322
58.04000 124.642
58.08000 123.003
58.12000 132.837
58.16000 126.646
58.20000 127.019
58.24000 126.186
58.28000 122.515
58.32000 121.784
58.36000 126.797
58.40000 124.329
58.44000 130.621
58.48000 117.225
58.52000 127.907
58.56000 117.976
58.60000 127.615
58.64000 119.448
58.68000 117.219
58.72000 110.600
58.76000 120.411
58.80000 122.372
58.84000 130.717
58.88000 114.850
58.92000 113.799
58.96000 126.780
59.00000 123.714
59.04000 115.023
59.08000 118.300
59.12000 127.056
59.16000 119.712
59.20000 121.249
59.24000 126.629
59.28000 120.999
59.32000 115.450
59.36000 116.193
59.40000 119.860
59.44000 128.090
59.48000 111.735
59.52000 117.550
59.56000 113.030
59.60000 115.085
59.64000 120.845
59.68000 127.052
59.72000 124.798
59.76000 122.675
59.80000 109.963
59.84000 109.838
59.88000 113.373
59.92000 112.506
59.96000 110.879
60.00000 114.935
60.04000 121.294
60.08000 110.045
60.12000 112.150
60.16000 111.025
60.20000 121.581
60.24000 111.167
60.28000 124.711
60.32000 106.248
60.36000 117.475
60.40000 123.029
60.44000 116.280
60.48000 125.301
60.52000 109.058
60.56000 112.157
60.60000 111.956
60.64000 109.554
60.68000 112.211
60.72000 126.759
60.76000 119.351
60.80000 107.854
60.84000 113.130
60.88000 118.190
60.92000 109.826
60.96000 121.947
61.00000 114.674
61.04000 110.528
61.08000 128.873
61.12000 127.138
61.16000 117.629
61.20000 128.953
61.24000 125.998
61.28000 123.355
61.32000 130.684
61.36000 125.730
61.40000 116.556
61.44000 115.312
61.48000 132.068
61.52000 146.647
61.56000 191.868
61.60000 234.379
61.64000 276.905
61.68000 279.053
61.72000 285.546
61.76000 275.717
61.80000 232.888
61.84000 173.620
61.88000 143.152
61.92000 135.506
61.96000 141.645
62.00000 131.448
62.04000 123.111
62.08000 126.709
62.12000 118.497
62.16000 122.323
62.20000 127.093
62.24000 123.956
62.28000 128.685
62.32000 120.777
62.36000 136.238
62.40000 127.441
62.44000 133.337
62.48000 118.621
62.52000 131.481
62.56000 129.606
62.60000 134.097
62.64000 127.642
62.68000 125.381
62.72000 132.580
62.76000 117.690
62.80000 128.351
62.84000 136.223
62.88000 133.058
62.92000 136.119
62.96000 137.197
63.00000 126.975
63.04000 129.737
63.08000 130.277
63.12000 125.179
63.16000 129.902
63.20000 127.936
63.24000 131.456
63.28000 138.811
63.32000 135.336
63.36000 133.357
63.40000 135.753
63.44000 140.577
63.48000 134.633
63.52000 129.525
63.56000 128.716
63.60000 130.862
63.64000 137.466
63.68000 131.297
63.72000 141.126
63.76000 138.741
63.80000 138.549
63.84000 140.076
63.88000 140.049
63.92000 136.848
63.96000 140.493
64.00000 138.293
64.04000 153.267
64.08000 139.916
64.12000 146.261
64.16000 140.750
64.20000 148.944
64.24000 142.185
64.28000 147.199
64.32000 143.261
64.36000 148.898
64.40000 156.410
64.44000 159.483
64.48000 157.023
64.52000 163.770
64.56000 160.530
64.60000 158.197
64.64000 164.563
64.68000 160.889
64.72000 162.221
64.76000 170.468
64.80000 172.610
64.84000 168.716
64.88000 183.907
64.92000 180.532
64.96000 179.514
65.00000 188.571
65.04000 188.575
65.08000 188.988
65.12000 203.537
65.16000 212.901
65.20000 213.913
65.24000 220.571
65.28000 226.215
65.32000 241.074
65.36000 251.542
65.40000 259.517
65.44000 275.640
65.48000 277.228
65.52000 293.871
65.56000 331.893
65.60000 355.098
65.64000 413.190
65.68000 567.693
65.72000 880.666
65.76000 1329.764
65.80000 1747.577
65.84000 1887.010
65.88000 1910.860
65.92000 1855.883
65.96000 1538.409
66.00000 986.815
66.04000 642.935
66.08000 482.484
66.12000 393.171
66.16000 378.915
66.20000 362.723
66.24000 382.922
66.28000 430.596
66.32000 514.387
66.36000 586.514
66.40000 610.007
66.44000 618.775
66.48000 598.050
66.52000 528.482
66.56000 430.061
66.60000 370.069
66.64000 360.680
66.68000 332.635
66.72000 349.977
66.76000 354.992
66.80000 344.340
66.84000 354.137
66.88000 351.811
66.92000 352.105
66.96000 363.463
67.00000 358.817
67.04000 353.807
67.08000 362.032
67.12000 360.708
67.16000 369.487
67.20000 381.061
67.24000 392.943
67.28000 389.150
67.32000 388.956
67.36000 370.097
67.40000 402.953
67.44000 417.052
67.48000 410.660
67.52000 417.379
67.56000 448.281
67.60000 422.900
67.64000 426.093
67.68000 442.603
67.72000 440.696
67.76000 461.910
67.80000 459.919
67.84000 457.810
67.88000 475.534
67.92000 493.033
67.96000 483.815
68.00000 477.591
68.04000 512.581
68.08000 509.379
68.12000 518.840
68.16000 519.528
68.20000 537.606
68.24000 541.285
68.28000 573.283
68.32000 570.559
68.36000 588.289
68.40000 632.473
68.44000 636.563
68.48000 655.380
68.52000 706.348
68.56000 738.975
68.60000 822.778
68.64000 911.010
68.68000 1086.244
68.72000 1254.763
68.76000 1417.369
68.80000 1585.413
68.84000 1803.662
68.88000 2161.898
68.92000 3133.577
68.96000 8686.005
69.00000 20162.904
69.04000 32598.637
69.08000 39485.160
69.12000 42090.809
69.16000 45027.898
69.20000 45026.605
69.24000 36343.207
69.28000 26794.969
69.32000 21736.020
69.36000 20446.109
69.40000 17117.137
69.44000 10857.212
69.48000 4868.259
69.52000 2154.917
69.56000 1299.805
69.60000 1052.080
69.64000 876.927
69.68000 769.733
69.72000 720.295
69.76000 652.553
69.80000 622.231
69.84000 592.028
69.88000 547.762
69.92000 518.606
69.96000 516.779
70.00000 497.189