File: XRD/XRD/07-10-2025 Dep 6/XY Data/BTO_Mapping_Theta2Theta_07-10-2025_001_29_-32-361_23-511.xy
20.00000 471.967
20.04000 481.305
20.08000 469.121
20.12000 460.608
20.16000 462.338
20.20000 467.316
20.24000 467.933
20.28000 468.155
20.32000 472.488
20.36000 466.895
20.40000 450.878
20.44000 460.242
20.48000 461.195
20.52000 458.908
20.56000 473.620
20.60000 459.929
20.64000 464.727
20.68000 471.548
20.72000 466.963
20.76000 473.007
20.80000 462.182
20.84000 459.622
20.88000 465.952
20.92000 458.237
20.96000 449.448
21.00000 449.528
21.04000 473.211
21.08000 456.375
21.12000 466.040
21.16000 464.930
21.20000 472.361
21.24000 478.750
21.28000 459.635
21.32000 462.309
21.36000 454.050
21.40000 462.085
21.44000 459.586
21.48000 438.330
21.52000 468.559
21.56000 468.617
21.60000 464.187
21.64000 452.835
21.68000 463.195
21.72000 469.646
21.76000 498.883
21.80000 507.577
21.84000 520.403
21.88000 513.208
21.92000 532.518
21.96000 552.886
22.00000 570.548
22.04000 584.948
22.08000 608.302
22.12000 593.839
22.16000 580.215
22.20000 552.484
22.24000 533.658
22.28000 541.520
22.32000 498.903
22.36000 497.685
22.40000 517.912
22.44000 459.809
22.48000 470.144
22.52000 459.699
22.56000 444.212
22.60000 450.206
22.64000 444.942
22.68000 441.098
22.72000 428.494
22.76000 433.873
22.80000 425.380
22.84000 431.235
22.88000 423.972
22.92000 413.154
22.96000 431.777
23.00000 421.435
23.04000 431.840
23.08000 443.404
23.12000 422.723
23.16000 430.215
23.20000 417.618
23.24000 431.806
23.28000 416.524
23.32000 423.403
23.36000 433.238
23.40000 442.228
23.44000 393.956
23.48000 433.212
23.52000 461.996
23.56000 418.981
23.60000 428.184
23.64000 431.243
23.68000 410.731
23.72000 430.523
23.76000 432.602
23.80000 431.538
23.84000 406.531
23.88000 416.786
23.92000 434.277
23.96000 431.348
24.00000 435.032
24.04000 438.181
24.08000 449.079
24.12000 430.803
24.16000 432.314
24.20000 415.855
24.24000 413.075
24.28000 410.161
24.32000 425.519
24.36000 414.686
24.40000 393.751
24.44000 406.928
24.48000 400.344
24.52000 404.378
24.56000 433.516
24.60000 406.490
24.64000 387.225
24.68000 397.659
24.72000 410.171
24.76000 396.473
24.80000 400.560
24.84000 395.805
24.88000 394.674
24.92000 394.950
24.96000 395.315
25.00000 401.288
25.04000 413.578
25.08000 396.829
25.12000 401.087
25.16000 392.709
25.20000 408.164
25.24000 382.730
25.28000 393.017
25.32000 394.529
25.36000 388.654
25.40000 371.670
25.44000 401.361
25.48000 388.964
25.52000 374.552
25.56000 383.489
25.60000 389.956
25.64000 385.042
25.68000 402.755
25.72000 380.534
25.76000 386.535
25.80000 383.118
25.84000 385.852
25.88000 387.199
25.92000 387.543
25.96000 386.409
26.00000 367.998
26.04000 374.046
26.08000 369.693
26.12000 380.259
26.16000 386.355
26.20000 393.589
26.24000 396.434
26.28000 378.785
26.32000 388.983
26.36000 386.336
26.40000 404.511
26.44000 391.927
26.48000 363.202
26.52000 380.229
26.56000 363.514
26.60000 364.263
26.64000 364.815
26.68000 377.796
26.72000 381.978
26.76000 370.937
26.80000 366.321
26.84000 379.170
26.88000 379.871
26.92000 363.065
26.96000 367.076
27.00000 381.537
27.04000 359.051
27.08000 371.616
27.12000 385.237
27.16000 366.019
27.20000 363.209
27.24000 375.751
27.28000 365.197
27.32000 372.138
27.36000 369.967
27.40000 372.507
27.44000 372.252
27.48000 374.767
27.52000 378.090
27.56000 363.289
27.60000 369.141
27.64000 366.174
27.68000 346.031
27.72000 374.050
27.76000 355.028
27.80000 359.238
27.84000 363.036
27.88000 380.282
27.92000 345.955
27.96000 368.493
28.00000 346.149
28.04000 360.925
28.08000 357.835
28.12000 370.022
28.16000 363.157
28.20000 358.940
28.24000 360.656
28.28000 357.104
28.32000 356.385
28.36000 356.260
28.40000 351.795
28.44000 352.098
28.48000 334.261
28.52000 339.005
28.56000 350.345
28.60000 356.117
28.64000 344.050
28.68000 356.616
28.72000 363.043
28.76000 352.192
28.80000 340.752
28.84000 369.446
28.88000 346.426
28.92000 345.525
28.96000 347.083
29.00000 346.482
29.04000 346.255
29.08000 346.665
29.12000 345.791
29.16000 337.092
29.20000 349.705
29.24000 335.334
29.28000 330.779
29.32000 335.031
29.36000 349.548
29.40000 341.527
29.44000 339.024
29.48000 342.777
29.52000 335.045
29.56000 342.370
29.60000 341.690
29.64000 348.741
29.68000 357.902
29.72000 348.769
29.76000 373.240
29.80000 358.181
29.84000 366.128
29.88000 388.888
29.92000 399.404
29.96000 401.698
30.00000 418.706
30.04000 398.277
30.08000 427.850
30.12000 390.034
30.16000 401.065
30.20000 383.038
30.24000 371.575
30.28000 374.535
30.32000 354.204
30.36000 368.270
30.40000 359.004
30.44000 368.225
30.48000 371.540
30.52000 345.236
30.56000 349.789
30.60000 348.037
30.64000 354.294
30.68000 360.586
30.72000 359.727
30.76000 377.613
30.80000 364.108
30.84000 394.026
30.88000 402.240
30.92000 414.490
30.96000 444.712
31.00000 509.254
31.04000 570.606
31.08000 661.625
31.12000 852.404
31.16000 1053.652
31.20000 1265.280
31.24000 1520.260
31.28000 1709.852
31.32000 1903.325
31.36000 2001.146
31.40000 1975.136
31.44000 1801.690
31.48000 1543.091
31.52000 1290.161
31.56000 1030.246
31.60000 813.345
31.64000 668.752
31.68000 544.708
31.72000 482.816
31.76000 435.400
31.80000 403.709
31.84000 397.987
31.88000 383.693
31.92000 352.671
31.96000 361.322
32.00000 357.675
32.04000 354.652
32.08000 338.030
32.12000 331.007
32.16000 319.907
32.20000 319.107
32.24000 331.382
32.28000 323.286
32.32000 321.043
32.36000 311.231
32.40000 316.633
32.44000 322.832
32.48000 318.140
32.52000 319.380
32.56000 322.308
32.60000 300.612
32.64000 305.234
32.68000 315.316
32.72000 310.639
32.76000 328.630
32.80000 344.840
32.84000 407.708
32.88000 473.721
32.92000 509.524
32.96000 526.677
33.00000 531.950
33.04000 496.755
33.08000 419.189
33.12000 369.115
33.16000 320.436
33.20000 303.577
33.24000 291.325
33.28000 284.872
33.32000 280.907
33.36000 284.878
33.40000 283.917
33.44000 288.940
33.48000 281.072
33.52000 291.216
33.56000 293.325
33.60000 279.965
33.64000 296.028
33.68000 298.040
33.72000 280.496
33.76000 276.369
33.80000 292.728
33.84000 276.034
33.88000 302.489
33.92000 289.943
33.96000 305.393
34.00000 283.628
34.04000 286.784
34.08000 297.915
34.12000 304.437
34.16000 301.801
34.20000 290.018
34.24000 297.000
34.28000 310.272
34.32000 297.668
34.36000 295.758
34.40000 297.229
34.44000 290.039
34.48000 291.823
34.52000 297.471
34.56000 292.152
34.60000 291.790
34.64000 288.520
34.68000 283.400
34.72000 294.166
34.76000 281.948
34.80000 286.492
34.84000 290.382
34.88000 260.946
34.92000 264.290
34.96000 270.385
35.00000 267.841
35.04000 259.519
35.08000 267.482
35.12000 269.684
35.16000 288.067
35.20000 264.602
35.24000 265.293
35.28000 257.986
35.32000 267.581
35.36000 259.294
35.40000 269.366
35.44000 264.149
35.48000 265.654
35.52000 270.928
35.56000 250.444
35.60000 268.388
35.64000 260.823
35.68000 266.439
35.72000 265.539
35.76000 261.692
35.80000 262.141
35.84000 262.031
35.88000 250.777
35.92000 259.053
35.96000 254.411
36.00000 255.816
36.04000 260.784
36.08000 257.659
36.12000 250.331
36.16000 255.062
36.20000 256.353
36.24000 254.989
36.28000 256.793
36.32000 263.193
36.36000 260.208
36.40000 261.740
36.44000 251.709
36.48000 246.684
36.52000 239.077
36.56000 261.001
36.60000 240.521
36.64000 244.218
36.68000 262.066
36.72000 250.048
36.76000 268.126
36.80000 263.070
36.84000 271.692
36.88000 265.020
36.92000 271.153
36.96000 279.501
37.00000 264.009
37.04000 262.748
37.08000 266.505
37.12000 263.128
37.16000 272.948
37.20000 270.713
37.24000 258.384
37.28000 254.743
37.32000 249.664
37.36000 263.963
37.40000 243.430
37.44000 241.954
37.48000 244.346
37.52000 246.958
37.56000 241.663
37.60000 255.386
37.64000 264.292
37.68000 254.582
37.72000 252.058
37.76000 250.845
37.80000 254.695
37.84000 244.382
37.88000 259.138
37.92000 251.695
37.96000 246.233
38.00000 247.420
38.04000 247.243
38.08000 247.193
38.12000 247.139
38.16000 240.902
38.20000 258.919
38.24000 269.459
38.28000 268.740
38.32000 299.505
38.36000 334.495
38.40000 359.337
38.44000 413.212
38.48000 503.361
38.52000 554.999
38.56000 659.121
38.60000 723.047
38.64000 805.894
38.68000 859.352
38.72000 884.711
38.76000 855.377
38.80000 775.346
38.84000 684.232
38.88000 596.905
38.92000 504.334
38.96000 413.307
39.00000 358.223
39.04000 303.364
39.08000 283.841
39.12000 268.849
39.16000 241.500
39.20000 233.867
39.24000 241.348
39.28000 242.340
39.32000 236.727
39.36000 236.049
39.40000 212.720
39.44000 227.422
39.48000 221.830
39.52000 225.465
39.56000 214.312
39.60000 226.589
39.64000 225.962
39.68000 226.863
39.72000 228.696
39.76000 227.231
39.80000 224.426
39.84000 216.239
39.88000 225.616
39.92000 229.646
39.96000 222.202
40.00000 223.464
40.04000 212.126
40.08000 230.657
40.12000 218.919
40.16000 206.099
40.20000 215.362
40.24000 222.407
40.28000 218.907
40.32000 216.991
40.36000 216.072
40.40000 226.028
40.44000 219.356
40.48000 216.418
40.52000 208.119
40.56000 208.934
40.60000 202.370
40.64000 212.921
40.68000 223.351
40.72000 218.114
40.76000 207.588
40.80000 212.405
40.84000 200.610
40.88000 202.825
40.92000 202.957
40.96000 193.226
41.00000 204.381
41.04000 216.988
41.08000 210.788
41.12000 213.285
41.16000 206.036
41.20000 199.944
41.24000 209.639
41.28000 200.190
41.32000 195.074
41.36000 199.755
41.40000 217.928
41.44000 211.849
41.48000 210.824
41.52000 216.746
41.56000 210.955
41.60000 205.462
41.64000 206.901
41.68000 207.661
41.72000 198.955
41.76000 193.504
41.80000 193.608
41.84000 209.677
41.88000 197.703
41.92000 198.698
41.96000 203.149
42.00000 204.457
42.04000 197.853
42.08000 202.194
42.12000 198.155
42.16000 193.222
42.20000 200.295
42.24000 205.101
42.28000 210.531
42.32000 198.420
42.36000 194.127
42.40000 204.822
42.44000 199.964
42.48000 203.560
42.52000 193.137
42.56000 206.295
42.60000 194.574
42.64000 175.858
42.68000 207.081
42.72000 200.828
42.76000 197.640
42.80000 203.428
42.84000 188.680
42.88000 191.835
42.92000 199.843
42.96000 193.661
43.00000 199.238
43.04000 183.870
43.08000 196.771
43.12000 195.607
43.16000 190.453
43.20000 198.151
43.24000 193.802
43.28000 191.525
43.32000 195.361
43.36000 192.280
43.40000 197.466
43.44000 190.075
43.48000 192.272
43.52000 189.445
43.56000 189.376
43.60000 181.453
43.64000 200.587
43.68000 195.508
43.72000 199.622
43.76000 197.677
43.80000 184.617
43.84000 190.944
43.88000 197.574
43.92000 188.580
43.96000 187.957
44.00000 194.251
44.04000 192.088
44.08000 190.643
44.12000 193.523
44.16000 193.280
44.20000 190.810
44.24000 196.023
44.28000 187.558
44.32000 179.174
44.36000 194.917
44.40000 186.751
44.44000 191.053
44.48000 197.286
44.52000 197.924
44.56000 205.600
44.60000 215.358
44.64000 202.786
44.68000 214.450
44.72000 230.419
44.76000 234.193
44.80000 236.432
44.84000 259.538
44.88000 273.245
44.92000 271.537
44.96000 286.775
45.00000 283.432
45.04000 279.924
45.08000 298.967
45.12000 272.921
45.16000 275.331
45.20000 261.762
45.24000 273.291
45.28000 270.780
45.32000 257.422
45.36000 240.567
45.40000 227.479
45.44000 243.537
45.48000 219.868
45.52000 218.860
45.56000 216.166
45.60000 212.154
45.64000 205.303
45.68000 199.175
45.72000 209.213
45.76000 203.236
45.80000 199.623
45.84000 193.234
45.88000 187.189
45.92000 185.578
45.96000 182.496
46.00000 184.312
46.04000 189.336
46.08000 171.643
46.12000 169.540
46.16000 187.484
46.20000 182.113
46.24000 177.088
46.28000 179.136
46.32000 183.416
46.36000 170.699
46.40000 181.753
46.44000 175.915
46.48000 181.543
46.52000 169.563
46.56000 173.676
46.60000 175.835
46.64000 182.298
46.68000 159.722
46.72000 162.765
46.76000 169.690
46.80000 155.155
46.84000 170.813
46.88000 170.825
46.92000 170.538
46.96000 171.819
47.00000 166.048
47.04000 160.340
47.08000 163.719
47.12000 168.004
47.16000 165.469
47.20000 161.590
47.24000 164.958
47.28000 159.637
47.32000 165.796
47.36000 170.598
47.40000 167.314
47.44000 169.061
47.48000 165.090
47.52000 154.130
47.56000 158.579
47.60000 164.867
47.64000 160.920
47.68000 162.184
47.72000 155.778
47.76000 163.467
47.80000 165.334
47.84000 151.178
47.88000 152.378
47.92000 167.279
47.96000 162.797
48.00000 160.627
48.04000 170.535
48.08000 162.596
48.12000 148.030
48.16000 158.617
48.20000 146.558
48.24000 161.097
48.28000 163.213
48.32000 158.592
48.36000 143.964
48.40000 159.946
48.44000 165.058
48.48000 157.924
48.52000 152.970
48.56000 155.123
48.60000 153.503
48.64000 154.415
48.68000 154.206
48.72000 149.007
48.76000 160.241
48.80000 140.916
48.84000 155.028
48.88000 158.546
48.92000 140.133
48.96000 147.538
49.00000 157.490
49.04000 148.882
49.08000 146.342
49.12000 153.298
49.16000 162.086
49.20000 147.849
49.24000 141.885
49.28000 145.639
49.32000 150.254
49.36000 148.146
49.40000 153.242
49.44000 150.579
49.48000 147.324
49.52000 148.509
49.56000 156.608
49.60000 147.395
49.64000 152.369
49.68000 143.331
49.72000 162.482
49.76000 144.804
49.80000 151.468
49.84000 149.914
49.88000 141.407
49.92000 150.033
49.96000 154.824
50.00000 149.013
50.04000 151.187
50.08000 157.795
50.12000 149.355
50.16000 153.529
50.20000 161.757
50.24000 145.446
50.28000 151.827
50.32000 163.437
50.36000 173.771
50.40000 177.465
50.44000 182.453
50.48000 178.884
50.52000 183.094
50.56000 194.779
50.60000 198.234
50.64000 190.024
50.68000 208.366
50.72000 185.248
50.76000 199.350
50.80000 197.970
50.84000 195.687
50.88000 161.147
50.92000 170.770
50.96000 153.068
51.00000 165.524
51.04000 167.203
51.08000 161.529
51.12000 151.138
51.16000 147.410
51.20000 145.116
51.24000 134.960
51.28000 139.581
51.32000 149.791
51.36000 143.917
51.40000 153.106
51.44000 133.192
51.48000 138.898
51.52000 148.314
51.56000 136.398
51.60000 145.039
51.64000 144.067
51.68000 143.114
51.72000 145.351
51.76000 149.777
51.80000 140.670
51.84000 128.966
51.88000 139.791
51.92000 137.462
51.96000 145.819
52.00000 136.968
52.04000 131.238
52.08000 143.054
52.12000 146.686
52.16000 139.788
52.20000 141.303
52.24000 131.048
52.28000 129.402
52.32000 128.017
52.36000 128.912
52.40000 127.126
52.44000 131.793
52.48000 139.152
52.52000 134.402
52.56000 145.396
52.60000 145.335
52.64000 132.501
52.68000 127.968
52.72000 141.448
52.76000 129.802
52.80000 130.185
52.84000 142.583
52.88000 136.237
52.92000 140.972
52.96000 146.080
53.00000 142.457
53.04000 145.927
53.08000 150.318
53.12000 133.090
53.16000 140.073
53.20000 148.225
53.24000 148.865
53.28000 148.135
53.32000 142.824
53.36000 148.130
53.40000 150.772
53.44000 154.422
53.48000 146.296
53.52000 151.115
53.56000 142.694
53.60000 136.886
53.64000 143.629
53.68000 137.489
53.72000 140.603
53.76000 142.683
53.80000 139.825
53.84000 138.735
53.88000 144.293
53.92000 129.852
53.96000 131.938
54.00000 133.490
54.04000 135.307
54.08000 143.311
54.12000 138.114
54.16000 131.956
54.20000 137.442
54.24000 141.000
54.28000 152.535
54.32000 147.884
54.36000 132.741
54.40000 137.121
54.44000 130.004
54.48000 124.045
54.52000 134.124
54.56000 128.921
54.60000 141.781
54.64000 140.722
54.68000 141.692
54.72000 139.938
54.76000 139.294
54.80000 119.217
54.84000 138.666
54.88000 133.074
54.92000 135.854
54.96000 133.723
55.00000 142.575
55.04000 132.521
55.08000 138.596
55.12000 143.652
55.16000 150.310
55.20000 153.130
55.24000 147.345
55.28000 153.309
55.32000 162.225
55.36000 167.255
55.40000 171.562
55.44000 194.203
55.48000 219.724
55.52000 237.121
55.56000 265.511
55.60000 309.428
55.64000 353.328
55.68000 390.934
55.72000 446.264
55.76000 484.735
55.80000 516.181
55.84000 547.930
55.88000 552.870
55.92000 580.924
55.96000 556.614
56.00000 527.214
56.04000 480.892
56.08000 449.340
56.12000 394.731
56.16000 346.342
56.20000 303.687
56.24000 271.975
56.28000 231.081
56.32000 199.361
56.36000 194.295
56.40000 194.560
56.44000 161.922
56.48000 170.652
56.52000 154.189
56.56000 155.645
56.60000 152.040
56.64000 138.278
56.68000 138.934
56.72000 139.014
56.76000 137.193
56.80000 132.598
56.84000 132.055
56.88000 143.535
56.92000 126.252
56.96000 123.083
57.00000 126.056
57.04000 124.373
57.08000 117.874
57.12000 128.850
57.16000 127.545
57.20000 120.077
57.24000 119.494
57.28000 134.719
57.32000 116.171
57.36000 117.029
57.40000 130.188
57.44000 130.119
57.48000 124.617
57.52000 119.104
57.56000 116.569
57.60000 121.290
57.64000 131.235
57.68000 117.685
57.72000 121.147
57.76000 122.230
57.80000 123.325
57.84000 132.756
57.88000 125.942
57.92000 115.836
57.96000 116.646
58.00000 115.729
58.04000 121.397
58.08000 127.904
58.12000 117.740
58.16000 120.601
58.20000 114.209
58.24000 121.114
58.28000 112.909
58.32000 116.435
58.36000 124.107
58.40000 119.840
58.44000 111.308
58.48000 116.155
58.52000 114.936
58.56000 120.103
58.60000 108.741
58.64000 123.867
58.68000 124.589
58.72000 111.330
58.76000 114.840
58.80000 118.428
58.84000 108.231
58.88000 117.758
58.92000 116.734
58.96000 106.627
59.00000 114.170
59.04000 121.425
59.08000 113.561
59.12000 114.549
59.16000 113.701
59.20000 117.348
59.24000 121.927
59.28000 116.446
59.32000 113.233
59.36000 123.373
59.40000 125.127
59.44000 114.783
59.48000 108.553
59.52000 122.892
59.56000 123.289
59.60000 116.148
59.64000 113.984
59.68000 114.265
59.72000 117.721
59.76000 117.497
59.80000 115.107
59.84000 106.316
59.88000 128.594
59.92000 124.938
59.96000 115.024
60.00000 120.824
60.04000 124.791
60.08000 130.948
60.12000 120.962
60.16000 117.348
60.20000 116.023
60.24000 122.180
60.28000 113.295
60.32000 116.180
60.36000 118.555
60.40000 119.140
60.44000 113.901
60.48000 115.455
60.52000 120.376
60.56000 108.741
60.60000 121.662
60.64000 120.424
60.68000 116.542
60.72000 118.015
60.76000 111.209
60.80000 124.574
60.84000 116.686
60.88000 122.443
60.92000 112.280
60.96000 122.128
61.00000 114.345
61.04000 116.837
61.08000 120.290
61.12000 114.990
61.16000 126.519
61.20000 118.813
61.24000 124.459
61.28000 121.281
61.32000 119.453
61.36000 124.916
61.40000 122.824
61.44000 126.349
61.48000 127.474
61.52000 167.379
61.56000 209.961
61.60000 261.473
61.64000 302.919
61.68000 301.541
61.72000 308.770
61.76000 272.613
61.80000 229.559
61.84000 172.145
61.88000 148.179
61.92000 142.048
61.96000 130.821
62.00000 130.827
62.04000 131.316
62.08000 121.891
62.12000 128.454
62.16000 124.861
62.20000 125.896
62.24000 127.374
62.28000 136.651
62.32000 132.655
62.36000 125.556
62.40000 119.040
62.44000 124.655
62.48000 124.628
62.52000 125.813
62.56000 132.220
62.60000 129.601
62.64000 116.685
62.68000 121.290
62.72000 123.868
62.76000 125.843
62.80000 122.877
62.84000 118.084
62.88000 134.969
62.92000 130.409
62.96000 136.261
63.00000 130.676
63.04000 132.813
63.08000 134.222
63.12000 131.475
63.16000 127.746
63.20000 120.594
63.24000 134.245
63.28000 131.425
63.32000 128.710
63.36000 134.525
63.40000 130.712
63.44000 133.554
63.48000 129.992
63.52000 135.400
63.56000 134.477
63.60000 133.585
63.64000 143.620
63.68000 135.136
63.72000 141.737
63.76000 143.524
63.80000 133.902
63.84000 151.637
63.88000 145.317
63.92000 143.491
63.96000 146.569
64.00000 145.048
64.04000 152.800
64.08000 146.593
64.12000 158.323
64.16000 151.482
64.20000 156.315
64.24000 141.254
64.28000 153.619
64.32000 153.603
64.36000 155.932
64.40000 153.399
64.44000 150.886
64.48000 162.169
64.52000 169.060
64.56000 163.262
64.60000 166.362
64.64000 165.488
64.68000 165.318
64.72000 166.181
64.76000 171.910
64.80000 176.975
64.84000 176.349
64.88000 195.596
64.92000 186.785
64.96000 198.764
65.00000 198.147
65.04000 207.263
65.08000 219.549
65.12000 230.260
65.16000 214.728
65.20000 241.085
65.24000 255.288
65.28000 268.543
65.32000 267.946
65.36000 290.155
65.40000 316.288
65.44000 330.959
65.48000 341.870
65.52000 356.014
65.56000 370.327
65.60000 432.175
65.64000 516.091
65.68000 730.808
65.72000 1117.894
65.76000 1673.060
65.80000 2105.260
65.84000 2175.018
65.88000 2156.382
65.92000 1990.556
65.96000 1576.865
66.00000 1008.591
66.04000 658.740
66.08000 501.583
66.12000 422.413
66.16000 398.207
66.20000 403.544
66.24000 415.961
66.28000 504.630
66.32000 605.344
66.36000 653.289
66.40000 678.774
66.44000 677.363
66.48000 624.416
66.52000 542.621
66.56000 456.519
66.60000 399.072
66.64000 377.479
66.68000 362.351
66.72000 357.365
66.76000 368.347
66.80000 359.647
66.84000 380.372
66.88000 374.761
66.92000 373.256
66.96000 364.779
67.00000 377.445
67.04000 383.948
67.08000 394.688
67.12000 392.182
67.16000 392.866
67.20000 401.925
67.24000 394.639
67.28000 409.136
67.32000 419.390
67.36000 396.714
67.40000 419.866
67.44000 421.622
67.48000 432.831
67.52000 449.216
67.56000 443.741
67.60000 461.167
67.64000 446.899
67.68000 475.100
67.72000 459.146
67.76000 462.588
67.80000 482.007
67.84000 484.950
67.88000 485.915
67.92000 486.091
67.96000 495.036
68.00000 499.912
68.04000 514.972
68.08000 544.490
68.12000 519.965
68.16000 564.841
68.20000 567.829
68.24000 569.244
68.28000 581.640
68.32000 587.473
68.36000 615.030
68.40000 650.974
68.44000 673.707
68.48000 701.700
68.52000 736.498
68.56000 771.055
68.60000 890.043
68.64000 1038.150
68.68000 1243.357
68.72000 1421.401
68.76000 1645.310
68.80000 1873.063
68.84000 2139.233
68.88000 2784.119
68.92000 4624.697
68.96000 12818.735
69.00000 26781.020
69.04000 39898.922
69.08000 45825.359
69.12000 48695.453
69.16000 51434.313
69.20000 48744.008
69.24000 38448.699
69.28000 28936.240
69.32000 24227.258
69.36000 22504.799
69.40000 17418.086
69.44000 10531.925
69.48000 4622.914
69.52000 2071.036
69.56000 1370.229
69.60000 1102.217
69.64000 933.287
69.68000 836.364
69.72000 766.581
69.76000 697.999
69.80000 657.473
69.84000 607.933
69.88000 564.013
69.92000 545.471
69.96000 538.227
70.00000 493.630