File: XRD/XRD/07-10-2025 Dep 6/XY Data/BTO_Mapping_Theta2Theta_07-10-2025_001_35_-19-563_-4-158.xy
20.00000 468.568
20.04000 470.048
20.08000 461.825
20.12000 482.358
20.16000 474.423
20.20000 482.990
20.24000 477.395
20.28000 476.683
20.32000 456.520
20.36000 452.486
20.40000 459.521
20.44000 466.333
20.48000 464.390
20.52000 450.216
20.56000 482.115
20.60000 465.425
20.64000 458.482
20.68000 461.001
20.72000 461.056
20.76000 465.833
20.80000 446.217
20.84000 471.473
20.88000 445.043
20.92000 449.763
20.96000 453.113
21.00000 473.457
21.04000 469.510
21.08000 461.221
21.12000 469.627
21.16000 458.277
21.20000 472.636
21.24000 446.869
21.28000 481.732
21.32000 469.159
21.36000 458.576
21.40000 455.637
21.44000 437.325
21.48000 459.768
21.52000 465.952
21.56000 446.212
21.60000 480.042
21.64000 466.429
21.68000 465.371
21.72000 478.410
21.76000 493.078
21.80000 518.493
21.84000 512.342
21.88000 515.847
21.92000 551.951
21.96000 576.296
22.00000 593.481
22.04000 583.668
22.08000 575.126
22.12000 571.832
22.16000 573.168
22.20000 560.153
22.24000 541.516
22.28000 502.544
22.32000 497.719
22.36000 469.535
22.40000 450.089
22.44000 465.305
22.48000 460.949
22.52000 445.526
22.56000 446.876
22.60000 468.489
22.64000 447.758
22.68000 428.379
22.72000 437.312
22.76000 439.312
22.80000 432.055
22.84000 444.957
22.88000 440.790
22.92000 425.275
22.96000 429.204
23.00000 420.418
23.04000 440.610
23.08000 426.710
23.12000 427.359
23.16000 431.868
23.20000 435.914
23.24000 426.251
23.28000 410.416
23.32000 416.837
23.36000 420.025
23.40000 441.502
23.44000 425.241
23.48000 427.126
23.52000 445.407
23.56000 421.664
23.60000 423.423
23.64000 421.809
23.68000 424.113
23.72000 428.567
23.76000 422.780
23.80000 432.914
23.84000 447.354
23.88000 425.176
23.92000 429.509
23.96000 415.632
24.00000 422.599
24.04000 431.464
24.08000 435.497
24.12000 430.217
24.16000 430.209
24.20000 433.659
24.24000 426.337
24.28000 422.868
24.32000 417.175
24.36000 425.005
24.40000 415.955
24.44000 414.248
24.48000 398.786
24.52000 406.488
24.56000 399.981
24.60000 406.345
24.64000 411.720
24.68000 413.120
24.72000 412.778
24.76000 413.580
24.80000 407.871
24.84000 395.630
24.88000 385.703
24.92000 378.601
24.96000 407.286
25.00000 413.226
25.04000 398.419
25.08000 406.508
25.12000 385.640
25.16000 397.969
25.20000 399.914
25.24000 394.866
25.28000 399.489
25.32000 391.236
25.36000 384.015
25.40000 396.396
25.44000 388.974
25.48000 383.260
25.52000 391.507
25.56000 389.264
25.60000 385.965
25.64000 406.260
25.68000 384.146
25.72000 385.151
25.76000 380.522
25.80000 375.137
25.84000 375.282
25.88000 381.463
25.92000 381.598
25.96000 388.835
26.00000 375.744
26.04000 375.531
26.08000 370.861
26.12000 370.594
26.16000 377.241
26.20000 382.314
26.24000 363.992
26.28000 379.708
26.32000 381.511
26.36000 387.575
26.40000 371.682
26.44000 379.894
26.48000 368.686
26.52000 382.730
26.56000 378.722
26.60000 378.308
26.64000 379.678
26.68000 375.409
26.72000 376.102
26.76000 379.775
26.80000 366.402
26.84000 377.125
26.88000 361.581
26.92000 362.219
26.96000 385.183
27.00000 377.205
27.04000 382.604
27.08000 377.207
27.12000 365.937
27.16000 360.289
27.20000 369.436
27.24000 383.370
27.28000 367.579
27.32000 376.966
27.36000 373.592
27.40000 369.569
27.44000 372.806
27.48000 371.377
27.52000 374.692
27.56000 387.877
27.60000 373.234
27.64000 370.653
27.68000 359.582
27.72000 367.215
27.76000 372.184
27.80000 352.687
27.84000 356.682
27.88000 355.592
27.92000 360.010
27.96000 378.122
28.00000 360.076
28.04000 360.394
28.08000 371.979
28.12000 376.571
28.16000 365.365
28.20000 355.236
28.24000 373.487
28.28000 366.029
28.32000 381.442
28.36000 361.280
28.40000 362.457
28.44000 362.996
28.48000 350.431
28.52000 369.713
28.56000 351.409
28.60000 329.593
28.64000 338.755
28.68000 344.167
28.72000 336.877
28.76000 337.416
28.80000 353.406
28.84000 348.360
28.88000 339.202
28.92000 366.681
28.96000 351.259
29.00000 363.009
29.04000 329.644
29.08000 344.003
29.12000 356.042
29.16000 334.805
29.20000 341.124
29.24000 358.668
29.28000 342.936
29.32000 345.109
29.36000 351.089
29.40000 347.346
29.44000 353.504
29.48000 350.020
29.52000 347.383
29.56000 332.915
29.60000 359.480
29.64000 350.302
29.68000 360.416
29.72000 361.132
29.76000 376.500
29.80000 383.126
29.84000 390.852
29.88000 405.919
29.92000 426.207
29.96000 420.363
30.00000 409.423
30.04000 410.702
30.08000 408.094
30.12000 414.804
30.16000 383.300
30.20000 403.626
30.24000 390.208
30.28000 378.734
30.32000 384.489
30.36000 393.246
30.40000 372.544
30.44000 373.625
30.48000 384.691
30.52000 347.640
30.56000 363.490
30.60000 381.529
30.64000 371.944
30.68000 365.159
30.72000 388.617
30.76000 367.358
30.80000 392.288
30.84000 407.371
30.88000 431.453
30.92000 452.610
30.96000 473.087
31.00000 558.386
31.04000 681.650
31.08000 789.089
31.12000 1061.296
31.16000 1261.344
31.20000 1535.972
31.24000 1845.206
31.28000 2139.662
31.32000 2339.228
31.36000 2445.874
31.40000 2356.503
31.44000 2137.933
31.48000 1865.391
31.52000 1480.956
31.56000 1138.642
31.60000 897.298
31.64000 695.401
31.68000 582.846
31.72000 511.640
31.76000 442.895
31.80000 405.586
31.84000 377.157
31.88000 374.669
31.92000 363.619
31.96000 355.846
32.00000 346.471
32.04000 335.083
32.08000 344.887
32.12000 329.455
32.16000 327.282
32.20000 323.249
32.24000 332.051
32.28000 323.647
32.32000 327.532
32.36000 313.461
32.40000 326.509
32.44000 323.314
32.48000 308.993
32.52000 312.156
32.56000 315.869
32.60000 310.576
32.64000 306.293
32.68000 301.443
32.72000 303.664
32.76000 313.253
32.80000 343.156
32.84000 402.099
32.88000 474.061
32.92000 514.629
32.96000 532.951
33.00000 542.729
33.04000 497.299
33.08000 429.956
33.12000 370.389
33.16000 328.023
33.20000 304.334
33.24000 292.586
33.28000 299.108
33.32000 286.106
33.36000 296.539
33.40000 293.788
33.44000 289.611
33.48000 291.669
33.52000 301.357
33.56000 288.095
33.60000 290.138
33.64000 295.241
33.68000 291.035
33.72000 287.181
33.76000 298.817
33.80000 293.299
33.84000 280.581
33.88000 286.023
33.92000 282.041
33.96000 284.164
34.00000 289.614
34.04000 296.007
34.08000 289.859
34.12000 301.183
34.16000 312.704
34.20000 293.741
34.24000 295.111
34.28000 289.182
34.32000 295.433
34.36000 304.332
34.40000 305.567
34.44000 311.188
34.48000 302.191
34.52000 290.850
34.56000 308.345
34.60000 288.766
34.64000 285.703
34.68000 283.518
34.72000 268.989
34.76000 277.041
34.80000 291.611
34.84000 281.220
34.88000 268.551
34.92000 281.658
34.96000 271.492
35.00000 265.017
35.04000 261.644
35.08000 261.791
35.12000 269.377
35.16000 273.065
35.20000 268.099
35.24000 268.717
35.28000 262.076
35.32000 265.464
35.36000 264.387
35.40000 266.049
35.44000 260.040
35.48000 264.266
35.52000 271.598
35.56000 256.781
35.60000 260.839
35.64000 255.014
35.68000 270.932
35.72000 268.110
35.76000 265.750
35.80000 253.887
35.84000 248.796
35.88000 266.051
35.92000 259.138
35.96000 259.837
36.00000 258.182
36.04000 251.729
36.08000 260.006
36.12000 255.618
36.16000 258.008
36.20000 250.583
36.24000 256.579
36.28000 243.723
36.32000 243.778
36.36000 256.822
36.40000 253.072
36.44000 260.544
36.48000 268.789
36.52000 242.365
36.56000 255.408
36.60000 260.371
36.64000 248.387
36.68000 259.642
36.72000 269.616
36.76000 258.017
36.80000 250.633
36.84000 255.180
36.88000 274.274
36.92000 266.472
36.96000 265.885
37.00000 257.566
37.04000 272.735
37.08000 270.455
37.12000 270.173
37.16000 264.166
37.20000 257.085
37.24000 266.028
37.28000 258.443
37.32000 248.711
37.36000 265.620
37.40000 253.824
37.44000 255.733
37.48000 257.628
37.52000 246.255
37.56000 250.301
37.60000 249.319
37.64000 236.613
37.68000 252.955
37.72000 244.826
37.76000 254.807
37.80000 242.623
37.84000 252.257
37.88000 234.551
37.92000 247.898
37.96000 237.301
38.00000 232.268
38.04000 252.642
38.08000 247.130
38.12000 261.205
38.16000 265.840
38.20000 265.792
38.24000 273.419
38.28000 289.905
38.32000 318.560
38.36000 350.354
38.40000 381.634
38.44000 453.923
38.48000 523.135
38.52000 576.104
38.56000 676.117
38.60000 750.023
38.64000 790.101
38.68000 826.730
38.72000 842.722
38.76000 815.936
38.80000 721.905
38.84000 645.955
38.88000 564.974
38.92000 480.499
38.96000 405.255
39.00000 325.035
39.04000 296.385
39.08000 272.811
39.12000 250.275
39.16000 254.456
39.20000 253.983
39.24000 238.400
39.28000 240.423
39.32000 227.784
39.36000 234.990
39.40000 227.272
39.44000 240.392
39.48000 239.533
39.52000 230.237
39.56000 223.679
39.60000 225.539
39.64000 231.057
39.68000 225.390
39.72000 231.047
39.76000 234.198
39.80000 232.593
39.84000 206.394
39.88000 236.358
39.92000 218.576
39.96000 220.833
40.00000 213.215
40.04000 220.932
40.08000 219.055
40.12000 232.330
40.16000 226.145
40.20000 229.317
40.24000 216.235
40.28000 218.611
40.32000 208.406
40.36000 216.196
40.40000 222.132
40.44000 205.375
40.48000 219.097
40.52000 216.386
40.56000 213.185
40.60000 211.794
40.64000 211.135
40.68000 205.028
40.72000 214.071
40.76000 218.177
40.80000 213.372
40.84000 211.104
40.88000 213.758
40.92000 209.127
40.96000 214.162
41.00000 209.630
41.04000 219.323
41.08000 205.260
41.12000 201.047
41.16000 198.104
41.20000 194.214
41.24000 201.137
41.28000 191.624
41.32000 200.188
41.36000 204.930
41.40000 200.418
41.44000 209.592
41.48000 215.854
41.52000 213.890
41.56000 205.968
41.60000 206.973
41.64000 198.248
41.68000 196.937
41.72000 202.786
41.76000 205.837
41.80000 192.093
41.84000 202.277
41.88000 208.879
41.92000 192.179
41.96000 196.716
42.00000 185.626
42.04000 203.757
42.08000 196.865
42.12000 202.778
42.16000 202.273
42.20000 199.752
42.24000 207.068
42.28000 200.469
42.32000 197.809
42.36000 197.225
42.40000 207.225
42.44000 197.564
42.48000 193.892
42.52000 194.676
42.56000 212.996
42.60000 198.619
42.64000 193.083
42.68000 198.921
42.72000 211.596
42.76000 204.818
42.80000 196.132
42.84000 194.462
42.88000 216.605
42.92000 200.288
42.96000 198.870
43.00000 197.335
43.04000 190.348
43.08000 204.652
43.12000 199.194
43.16000 203.797
43.20000 200.552
43.24000 205.872
43.28000 196.571
43.32000 196.192
43.36000 197.686
43.40000 199.662
43.44000 183.550
43.48000 192.987
43.52000 190.449
43.56000 197.789
43.60000 185.624
43.64000 190.165
43.68000 191.036
43.72000 190.135
43.76000 189.720
43.80000 182.556
43.84000 184.731
43.88000 191.261
43.92000 179.903
43.96000 208.028
44.00000 199.218
44.04000 182.121
44.08000 192.609
44.12000 193.650
44.16000 192.800
44.20000 194.943
44.24000 191.587
44.28000 203.565
44.32000 200.530
44.36000 197.826
44.40000 199.730
44.44000 192.676
44.48000 195.153
44.52000 211.564
44.56000 213.974
44.60000 210.892
44.64000 231.586
44.68000 225.183
44.72000 250.181
44.76000 249.599
44.80000 251.324
44.84000 254.489
44.88000 275.669
44.92000 286.683
44.96000 297.064
45.00000 301.352
45.04000 305.619
45.08000 300.430
45.12000 286.397
45.16000 286.994
45.20000 285.845
45.24000 271.968
45.28000 255.369
45.32000 250.201
45.36000 235.724
45.40000 249.017
45.44000 246.769
45.48000 224.566
45.52000 217.150
45.56000 221.772
45.60000 217.149
45.64000 209.719
45.68000 208.511
45.72000 206.215
45.76000 189.240
45.80000 196.067
45.84000 188.327
45.88000 184.426
45.92000 179.957
45.96000 176.222
46.00000 186.251
46.04000 174.395
46.08000 168.796
46.12000 176.961
46.16000 181.008
46.20000 167.960
46.24000 174.582
46.28000 168.418
46.32000 180.609
46.36000 165.622
46.40000 174.748
46.44000 174.425
46.48000 169.303
46.52000 175.750
46.56000 169.982
46.60000 182.467
46.64000 173.193
46.68000 187.527
46.72000 176.962
46.76000 177.187
46.80000 179.251
46.84000 174.006
46.88000 167.483
46.92000 172.748
46.96000 178.349
47.00000 157.322
47.04000 171.969
47.08000 166.565
47.12000 169.385
47.16000 158.838
47.20000 163.411
47.24000 158.363
47.28000 173.268
47.32000 155.355
47.36000 160.561
47.40000 146.364
47.44000 156.893
47.48000 165.756
47.52000 167.039
47.56000 161.097
47.60000 159.956
47.64000 155.014
47.68000 162.286
47.72000 158.272
47.76000 159.846
47.80000 161.094
47.84000 167.816
47.88000 159.682
47.92000 163.205
47.96000 156.325
48.00000 161.399
48.04000 158.651
48.08000 151.136
48.12000 155.365
48.16000 156.538
48.20000 165.585
48.24000 163.038
48.28000 162.737
48.32000 154.073
48.36000 165.609
48.40000 163.133
48.44000 165.154
48.48000 152.355
48.52000 152.559
48.56000 162.313
48.60000 157.383
48.64000 154.917
48.68000 142.847
48.72000 152.900
48.76000 157.464
48.80000 154.434
48.84000 154.792
48.88000 163.027
48.92000 155.509
48.96000 162.328
49.00000 161.455
49.04000 151.070
49.08000 158.300
49.12000 157.524
49.16000 144.623
49.20000 147.886
49.24000 147.415
49.28000 150.671
49.32000 150.302
49.36000 152.246
49.40000 149.502
49.44000 156.579
49.48000 167.802
49.52000 149.269
49.56000 152.831
49.60000 147.892
49.64000 152.556
49.68000 154.122
49.72000 161.788
49.76000 152.960
49.80000 151.375
49.84000 146.630
49.88000 148.389
49.92000 146.176
49.96000 152.694
50.00000 167.077
50.04000 152.480
50.08000 153.961
50.12000 152.841
50.16000 155.452
50.20000 169.360
50.24000 162.620
50.28000 165.064
50.32000 166.059
50.36000 161.393
50.40000 187.145
50.44000 194.313
50.48000 207.363
50.52000 195.883
50.56000 203.777
50.60000 202.238
50.64000 209.229
50.68000 205.177
50.72000 220.741
50.76000 190.371
50.80000 194.048
50.84000 177.163
50.88000 185.994
50.92000 171.386
50.96000 166.628
51.00000 155.005
51.04000 167.071
51.08000 159.176
51.12000 151.542
51.16000 147.997
51.20000 138.918
51.24000 157.647
51.28000 155.885
51.32000 148.497
51.36000 153.886
51.40000 148.416
51.44000 141.858
51.48000 143.845
51.52000 134.299
51.56000 143.233
51.60000 149.460
51.64000 151.460
51.68000 140.064
51.72000 151.637
51.76000 146.593
51.80000 131.068
51.84000 131.288
51.88000 131.809
51.92000 139.115
51.96000 140.628
52.00000 143.045
52.04000 141.809
52.08000 134.475
52.12000 137.214
52.16000 143.568
52.20000 139.594
52.24000 139.047
52.28000 137.026
52.32000 140.484
52.36000 140.568
52.40000 139.550
52.44000 136.480
52.48000 133.105
52.52000 141.545
52.56000 134.715
52.60000 143.067
52.64000 137.415
52.68000 135.996
52.72000 139.679
52.76000 138.027
52.80000 122.118
52.84000 130.767
52.88000 142.994
52.92000 138.031
52.96000 147.728
53.00000 146.070
53.04000 134.851
53.08000 140.025
53.12000 146.960
53.16000 142.595
53.20000 145.556
53.24000 152.156
53.28000 152.433
53.32000 156.749
53.36000 155.128
53.40000 150.279
53.44000 145.457
53.48000 147.031
53.52000 148.380
53.56000 142.648
53.60000 150.362
53.64000 140.617
53.68000 139.917
53.72000 127.605
53.76000 146.629
53.80000 148.120
53.84000 148.119
53.88000 136.535
53.92000 132.670
53.96000 149.924
54.00000 132.060
54.04000 134.300
54.08000 135.109
54.12000 137.200
54.16000 139.888
54.20000 135.648
54.24000 140.043
54.28000 129.877
54.32000 134.053
54.36000 135.304
54.40000 135.559
54.44000 131.981
54.48000 134.110
54.52000 134.573
54.56000 144.006
54.60000 134.168
54.64000 139.756
54.68000 137.296
54.72000 145.665
54.76000 142.184
54.80000 144.586
54.84000 137.788
54.88000 136.055
54.92000 142.858
54.96000 138.683
55.00000 137.310
55.04000 145.827
55.08000 143.916
55.12000 146.171
55.16000 149.292
55.20000 153.572
55.24000 148.331
55.28000 166.531
55.32000 174.973
55.36000 169.015
55.40000 186.813
55.44000 205.614
55.48000 225.720
55.52000 261.112
55.56000 287.036
55.60000 332.739
55.64000 364.175
55.68000 422.594
55.72000 467.303
55.76000 516.061
55.80000 553.252
55.84000 579.680
55.88000 576.593
55.92000 569.053
55.96000 537.328
56.00000 499.809
56.04000 457.912
56.08000 412.116
56.12000 368.061
56.16000 324.996
56.20000 293.690
56.24000 258.802
56.28000 228.222
56.32000 196.425
56.36000 201.104
56.40000 180.692
56.44000 173.654
56.48000 154.642
56.52000 152.899
56.56000 126.347
56.60000 135.669
56.64000 134.607
56.68000 134.938
56.72000 131.852
56.76000 127.223
56.80000 120.976
56.84000 118.223
56.88000 128.363
56.92000 124.200
56.96000 131.497
57.00000 129.890
57.04000 123.240
57.08000 128.761
57.12000 121.046
57.16000 131.525
57.20000 135.151
57.24000 123.650
57.28000 113.222
57.32000 124.416
57.36000 127.047
57.40000 123.229
57.44000 120.810
57.48000 130.635
57.52000 127.137
57.56000 126.880
57.60000 125.703
57.64000 125.632
57.68000 123.659
57.72000 118.530
57.76000 130.228
57.80000 127.354
57.84000 123.092
57.88000 122.800
57.92000 122.110
57.96000 118.038
58.00000 120.994
58.04000 111.362
58.08000 126.547
58.12000 113.541
58.16000 126.985
58.20000 118.527
58.24000 124.323
58.28000 119.169
58.32000 115.875
58.36000 124.278
58.40000 124.859
58.44000 118.674
58.48000 111.044
58.52000 122.418
58.56000 122.936
58.60000 115.363
58.64000 114.990
58.68000 120.040
58.72000 117.044
58.76000 124.530
58.80000 121.759
58.84000 113.144
58.88000 114.533
58.92000 112.698
58.96000 112.181
59.00000 110.533
59.04000 119.089
59.08000 117.722
59.12000 112.533
59.16000 116.681
59.20000 124.688
59.24000 116.233
59.28000 113.884
59.32000 127.337
59.36000 122.317
59.40000 117.099
59.44000 123.736
59.48000 113.179
59.52000 121.967
59.56000 121.319
59.60000 111.513
59.64000 105.342
59.68000 119.971
59.72000 109.712
59.76000 113.669
59.80000 114.573
59.84000 110.474
59.88000 115.855
59.92000 110.791
59.96000 113.431
60.00000 107.577
60.04000 119.240
60.08000 112.998
60.12000 117.637
60.16000 112.219
60.20000 118.029
60.24000 123.261
60.28000 112.724
60.32000 115.613
60.36000 122.598
60.40000 117.100
60.44000 114.820
60.48000 107.509
60.52000 127.323
60.56000 116.521
60.60000 122.888
60.64000 115.833
60.68000 112.547
60.72000 106.267
60.76000 109.484
60.80000 117.509
60.84000 119.741
60.88000 112.344
60.92000 119.012
60.96000 121.459
61.00000 125.585
61.04000 124.020
61.08000 115.627
61.12000 113.215
61.16000 113.372
61.20000 115.666
61.24000 127.577
61.28000 119.593
61.32000 121.933
61.36000 122.115
61.40000 131.229
61.44000 120.497
61.48000 137.983
61.52000 152.998
61.56000 221.380
61.60000 269.330
61.64000 307.606
61.68000 326.284
61.72000 327.428
61.76000 284.883
61.80000 225.104
61.84000 174.804
61.88000 147.700
61.92000 141.281
61.96000 130.424
62.00000 124.933
62.04000 127.680
62.08000 128.378
62.12000 127.180
62.16000 127.797
62.20000 126.796
62.24000 114.333
62.28000 124.694
62.32000 131.897
62.36000 136.063
62.40000 125.565
62.44000 132.741
62.48000 141.682
62.52000 129.480
62.56000 131.521
62.60000 128.211
62.64000 139.736
62.68000 139.102
62.72000 137.190
62.76000 131.789
62.80000 131.857
62.84000 125.999
62.88000 136.636
62.92000 130.811
62.96000 128.925
63.00000 128.998
63.04000 126.532
63.08000 126.482
63.12000 138.480
63.16000 133.189
63.20000 130.026
63.24000 130.319
63.28000 133.862
63.32000 131.657
63.36000 129.819
63.40000 133.945
63.44000 138.136
63.48000 136.631
63.52000 123.025
63.56000 129.698
63.60000 133.170
63.64000 134.595
63.68000 132.886
63.72000 136.613
63.76000 131.640
63.80000 129.258
63.84000 142.347
63.88000 140.626
63.92000 157.038
63.96000 153.330
64.00000 146.826
64.04000 143.335
64.08000 142.013
64.12000 149.002
64.16000 141.755
64.20000 143.616
64.24000 143.171
64.28000 157.670
64.32000 154.125
64.36000 153.637
64.40000 146.624
64.44000 158.971
64.48000 163.988
64.52000 159.358
64.56000 155.562
64.60000 156.523
64.64000 166.461
64.68000 172.343
64.72000 174.123
64.76000 179.048
64.80000 183.036
64.84000 188.152
64.88000 172.673
64.92000 185.639
64.96000 190.580
65.00000 216.421
65.04000 215.324
65.08000 231.988
65.12000 233.756
65.16000 241.704
65.20000 256.899
65.24000 270.120
65.28000 302.574
65.32000 311.483
65.36000 316.835
65.40000 318.461
65.44000 344.285
65.48000 368.968
65.52000 378.251
65.56000 425.716
65.60000 452.295
65.64000 537.032
65.68000 710.382
65.72000 1131.828
65.76000 1660.281
65.80000 2038.430
65.84000 2188.154
65.88000 2239.961
65.92000 2083.810
65.96000 1673.597
66.00000 1056.598
66.04000 712.003
66.08000 494.873
66.12000 432.918
66.16000 399.121
66.20000 370.831
66.24000 429.839
66.28000 507.583
66.32000 595.774
66.36000 643.066
66.40000 676.922
66.44000 688.988
66.48000 636.838
66.52000 558.961
66.56000 475.950
66.60000 413.733
66.64000 380.007
66.68000 368.183
66.72000 365.531
66.76000 369.846
66.80000 384.082
66.84000 356.582
66.88000 373.146
66.92000 373.735
66.96000 353.610
67.00000 379.865
67.04000 393.691
67.08000 388.059
67.12000 396.121
67.16000 393.566
67.20000 404.093
67.24000 402.834
67.28000 417.431
67.32000 389.212
67.36000 404.248
67.40000 415.622
67.44000 429.364
67.48000 426.178
67.52000 431.859
67.56000 441.271
67.60000 441.261
67.64000 437.908
67.68000 466.107
67.72000 478.751
67.76000 481.171
67.80000 468.738
67.84000 502.997
67.88000 495.189
67.92000 484.823
67.96000 498.460
68.00000 511.198
68.04000 524.510
68.08000 515.516
68.12000 545.484
68.16000 554.443
68.20000 574.635
68.24000 579.722
68.28000 595.209
68.32000 604.718
68.36000 625.507
68.40000 645.495
68.44000 651.519
68.48000 702.713
68.52000 729.507
68.56000 789.739
68.60000 893.849
68.64000 1033.424
68.68000 1236.319
68.72000 1415.570
68.76000 1610.415
68.80000 1799.556
68.84000 2086.315
68.88000 2702.196
68.92000 4194.335
68.96000 11850.195
69.00000 25904.303
69.04000 39629.102
69.08000 46299.137
69.12000 49185.602
69.16000 52302.926
69.20000 50483.906
69.24000 40257.520
69.28000 30196.893
69.32000 24909.656
69.36000 23139.367
69.40000 18661.395
69.44000 11329.556
69.48000 5082.532
69.52000 2178.255
69.56000 1405.472
69.60000 1122.711
69.64000 965.659
69.68000 873.053
69.72000 758.349
69.76000 695.767
69.80000 640.819
69.84000 589.918
69.88000 573.565
69.92000 533.664
69.96000 537.304
70.00000 496.878