File: XRD/XRD/07-10-2025 Dep 6/XY Data/BTO_Mapping_Theta2Theta_07-10-2025_001_57_26-765_-29-726.xy
20.00000 489.692
20.04000 473.226
20.08000 486.566
20.12000 461.280
20.16000 472.214
20.20000 466.258
20.24000 459.075
20.28000 478.489
20.32000 464.890
20.36000 473.782
20.40000 460.468
20.44000 462.247
20.48000 454.409
20.52000 459.123
20.56000 472.007
20.60000 476.262
20.64000 477.302
20.68000 475.325
20.72000 461.044
20.76000 469.441
20.80000 468.153
20.84000 459.355
20.88000 449.790
20.92000 449.909
20.96000 473.751
21.00000 465.431
21.04000 461.855
21.08000 451.677
21.12000 473.710
21.16000 475.158
21.20000 482.648
21.24000 490.222
21.28000 482.288
21.32000 457.175
21.36000 454.424
21.40000 465.657
21.44000 463.317
21.48000 457.025
21.52000 454.466
21.56000 454.155
21.60000 451.929
21.64000 467.807
21.68000 465.005
21.72000 471.033
21.76000 494.396
21.80000 477.076
21.84000 464.801
21.88000 506.024
21.92000 485.894
21.96000 502.579
22.00000 512.625
22.04000 499.428
22.08000 506.886
22.12000 495.751
22.16000 499.010
22.20000 519.942
22.24000 485.215
22.28000 486.590
22.32000 475.310
22.36000 466.103
22.40000 466.555
22.44000 466.722
22.48000 453.143
22.52000 445.748
22.56000 446.076
22.60000 434.643
22.64000 431.202
22.68000 441.262
22.72000 474.069
22.76000 427.248
22.80000 446.186
22.84000 431.752
22.88000 426.236
22.92000 429.040
22.96000 429.705
23.00000 460.502
23.04000 447.986
23.08000 437.145
23.12000 449.477
23.16000 436.702
23.20000 434.088
23.24000 425.270
23.28000 445.659
23.32000 444.222
23.36000 452.784
23.40000 444.298
23.44000 447.363
23.48000 439.477
23.52000 446.616
23.56000 455.384
23.60000 446.039
23.64000 456.560
23.68000 457.918
23.72000 469.194
23.76000 471.291
23.80000 483.832
23.84000 494.259
23.88000 508.205
23.92000 508.352
23.96000 527.525
24.00000 522.563
24.04000 493.847
24.08000 502.990
24.12000 500.347
24.16000 497.238
24.20000 458.690
24.24000 457.807
24.28000 447.647
24.32000 436.954
24.36000 408.396
24.40000 424.727
24.44000 423.599
24.48000 418.207
24.52000 436.572
24.56000 423.225
24.60000 418.478
24.64000 407.023
24.68000 409.517
24.72000 415.717
24.76000 404.233
24.80000 400.272
24.84000 414.404
24.88000 410.155
24.92000 396.559
24.96000 403.405
25.00000 387.309
25.04000 404.908
25.08000 410.990
25.12000 402.233
25.16000 402.533
25.20000 418.336
25.24000 404.848
25.28000 418.370
25.32000 392.662
25.36000 405.979
25.40000 408.237
25.44000 413.808
25.48000 399.091
25.52000 416.504
25.56000 400.456
25.60000 395.505
25.64000 396.892
25.68000 396.202
25.72000 401.474
25.76000 406.083
25.80000 388.578
25.84000 393.666
25.88000 393.487
25.92000 402.678
25.96000 390.216
26.00000 393.625
26.04000 398.301
26.08000 388.969
26.12000 388.255
26.16000 394.995
26.20000 385.987
26.24000 380.592
26.28000 392.910
26.32000 389.858
26.36000 372.461
26.40000 388.101
26.44000 386.734
26.48000 384.096
26.52000 409.792
26.56000 381.751
26.60000 394.796
26.64000 399.798
26.68000 379.717
26.72000 373.328
26.76000 388.556
26.80000 381.032
26.84000 389.175
26.88000 372.531
26.92000 370.120
26.96000 360.373
27.00000 378.360
27.04000 368.899
27.08000 379.778
27.12000 378.697
27.16000 377.164
27.20000 384.148
27.24000 377.774
27.28000 387.568
27.32000 372.120
27.36000 356.196
27.40000 382.366
27.44000 374.127
27.48000 375.304
27.52000 367.782
27.56000 366.694
27.60000 378.894
27.64000 376.923
27.68000 382.843
27.72000 383.352
27.76000 361.111
27.80000 358.002
27.84000 374.709
27.88000 373.752
27.92000 369.914
27.96000 373.913
28.00000 365.905
28.04000 368.629
28.08000 360.675
28.12000 350.167
28.16000 372.261
28.20000 356.587
28.24000 369.206
28.28000 387.304
28.32000 356.812
28.36000 368.798
28.40000 365.767
28.44000 390.102
28.48000 353.144
28.52000 353.594
28.56000 366.388
28.60000 358.783
28.64000 360.019
28.68000 353.248
28.72000 357.203
28.76000 356.748
28.80000 362.810
28.84000 340.462
28.88000 346.708
28.92000 370.528
28.96000 379.786
29.00000 354.669
29.04000 360.263
29.08000 349.063
29.12000 352.095
29.16000 371.976
29.20000 355.359
29.24000 343.167
29.28000 342.299
29.32000 364.324
29.36000 347.485
29.40000 372.880
29.44000 359.200
29.48000 360.348
29.52000 341.124
29.56000 358.845
29.60000 357.825
29.64000 359.851
29.68000 362.440
29.72000 356.403
29.76000 371.092
29.80000 367.619
29.84000 376.725
29.88000 358.175
29.92000 397.125
29.96000 363.075
30.00000 369.035
30.04000 373.887
30.08000 377.076
30.12000 369.898
30.16000 362.867
30.20000 365.661
30.24000 374.074
30.28000 380.874
30.32000 368.061
30.36000 381.968
30.40000 355.777
30.44000 361.878
30.48000 374.800
30.52000 370.779
30.56000 369.422
30.60000 366.641
30.64000 371.602
30.68000 358.789
30.72000 369.012
30.76000 390.108
30.80000 373.751
30.84000 398.679
30.88000 401.163
30.92000 409.698
30.96000 433.454
31.00000 464.371
31.04000 489.479
31.08000 519.430
31.12000 581.842
31.16000 657.580
31.20000 751.694
31.24000 832.594
31.28000 922.313
31.32000 1004.768
31.36000 1069.916
31.40000 1049.182
31.44000 1017.892
31.48000 925.794
31.52000 842.722
31.56000 761.481
31.60000 669.138
31.64000 609.908
31.68000 533.635
31.72000 486.795
31.76000 466.420
31.80000 407.492
31.84000 396.316
31.88000 411.433
31.92000 391.871
31.96000 374.474
32.00000 368.694
32.04000 374.450
32.08000 365.714
32.12000 367.842
32.16000 355.267
32.20000 344.622
32.24000 363.241
32.28000 352.022
32.32000 352.048
32.36000 323.848
32.40000 348.590
32.44000 332.400
32.48000 323.132
32.52000 315.418
32.56000 311.143
32.60000 326.048
32.64000 323.590
32.68000 303.329
32.72000 320.207
32.76000 318.075
32.80000 330.623
32.84000 392.082
32.88000 451.182
32.92000 509.278
32.96000 535.685
33.00000 548.617
33.04000 509.385
33.08000 475.637
33.12000 372.528
33.16000 346.462
33.20000 311.374
33.24000 296.134
33.28000 283.433
33.32000 303.431
33.36000 295.856
33.40000 294.284
33.44000 294.329
33.48000 299.208
33.52000 296.429
33.56000 313.702
33.60000 299.566
33.64000 306.889
33.68000 286.961
33.72000 302.094
33.76000 292.877
33.80000 291.365
33.84000 306.366
33.88000 299.666
33.92000 311.792
33.96000 299.170
34.00000 308.374
34.04000 292.260
34.08000 308.226
34.12000 289.399
34.16000 298.840
34.20000 298.066
34.24000 316.945
34.28000 312.906
34.32000 313.915
34.36000 327.239
34.40000 323.994
34.44000 318.366
34.48000 313.793
34.52000 313.568
34.56000 305.956
34.60000 299.975
34.64000 289.564
34.68000 291.868
34.72000 293.344
34.76000 282.205
34.80000 287.241
34.84000 273.007
34.88000 285.902
34.92000 287.650
34.96000 265.314
35.00000 278.423
35.04000 281.855
35.08000 262.183
35.12000 277.541
35.16000 281.194
35.20000 281.320
35.24000 259.823
35.28000 267.239
35.32000 260.944
35.36000 263.856
35.40000 253.274
35.44000 247.218
35.48000 267.409
35.52000 258.566
35.56000 258.052
35.60000 259.572
35.64000 259.776
35.68000 254.034
35.72000 254.151
35.76000 254.133
35.80000 259.100
35.84000 250.491
35.88000 252.413
35.92000 262.461
35.96000 254.599
36.00000 262.295
36.04000 253.852
36.08000 267.652
36.12000 250.637
36.16000 251.277
36.20000 258.763
36.24000 262.062
36.28000 268.159
36.32000 241.518
36.36000 260.056
36.40000 248.109
36.44000 264.128
36.48000 249.433
36.52000 248.913
36.56000 271.266
36.60000 250.913
36.64000 255.643
36.68000 267.469
36.72000 255.960
36.76000 252.243
36.80000 253.733
36.84000 267.091
36.88000 262.837
36.92000 258.010
36.96000 268.351
37.00000 258.008
37.04000 282.250
37.08000 262.524
37.12000 266.518
37.16000 259.929
37.20000 246.108
37.24000 247.284
37.28000 258.712
37.32000 255.641
37.36000 251.847
37.40000 245.562
37.44000 250.646
37.48000 243.763
37.52000 246.277
37.56000 260.948
37.60000 248.062
37.64000 247.211
37.68000 256.248
37.72000 249.939
37.76000 234.590
37.80000 251.621
37.84000 256.422
37.88000 265.913
37.92000 270.849
37.96000 259.215
38.00000 251.270
38.04000 255.580
38.08000 243.667
38.12000 259.886
38.16000 262.931
38.20000 264.658
38.24000 265.023
38.28000 281.790
38.32000 281.650
38.36000 292.543
38.40000 295.352
38.44000 358.172
38.48000 391.880
38.52000 442.291
38.56000 533.406
38.60000 553.464
38.64000 640.452
38.68000 677.982
38.72000 698.385
38.76000 680.329
38.80000 618.787
38.84000 543.405
38.88000 483.985
38.92000 423.828
38.96000 352.379
39.00000 341.969
39.04000 292.373
39.08000 280.510
39.12000 264.616
39.16000 255.605
39.20000 248.549
39.24000 240.511
39.28000 243.682
39.32000 238.956
39.36000 237.641
39.40000 235.185
39.44000 238.933
39.48000 246.827
39.52000 225.735
39.56000 219.200
39.60000 237.451
39.64000 240.065
39.68000 235.553
39.72000 237.184
39.76000 240.788
39.80000 233.220
39.84000 239.313
39.88000 231.153
39.92000 228.592
39.96000 233.899
40.00000 243.161
40.04000 223.170
40.08000 222.604
40.12000 231.436
40.16000 225.480
40.20000 223.060
40.24000 214.705
40.28000 228.015
40.32000 228.827
40.36000 226.083
40.40000 214.002
40.44000 207.157
40.48000 218.735
40.52000 218.278
40.56000 213.839
40.60000 213.811
40.64000 218.349
40.68000 203.430
40.72000 210.954
40.76000 207.695
40.80000 209.534
40.84000 211.698
40.88000 224.360
40.92000 204.337
40.96000 213.583
41.00000 208.786
41.04000 207.230
41.08000 207.778
41.12000 201.589
41.16000 205.780
41.20000 194.826
41.24000 213.383
41.28000 206.375
41.32000 212.273
41.36000 218.794
41.40000 204.061
41.44000 200.918
41.48000 203.847
41.52000 218.425
41.56000 212.748
41.60000 211.961
41.64000 206.964
41.68000 211.825
41.72000 211.525
41.76000 197.339
41.80000 212.797
41.84000 198.145
41.88000 209.054
41.92000 215.730
41.96000 210.406
42.00000 214.183
42.04000 208.543
42.08000 217.761
42.12000 227.092
42.16000 223.206
42.20000 213.565
42.24000 205.504
42.28000 214.426
42.32000 208.934
42.36000 212.216
42.40000 208.677
42.44000 221.881
42.48000 214.346
42.52000 219.416
42.56000 208.327
42.60000 211.661
42.64000 222.338
42.68000 207.755
42.72000 207.512
42.76000 216.443
42.80000 207.487
42.84000 207.907
42.88000 199.748
42.92000 208.485
42.96000 208.462
43.00000 199.899
43.04000 204.096
43.08000 207.102
43.12000 204.012
43.16000 196.670
43.20000 191.230
43.24000 194.038
43.28000 200.139
43.32000 194.910
43.36000 186.026
43.40000 196.280
43.44000 189.404
43.48000 193.982
43.52000 204.970
43.56000 183.149
43.60000 193.100
43.64000 185.539
43.68000 186.727
43.72000 187.842
43.76000 188.942
43.80000 179.223
43.84000 197.507
43.88000 196.457
43.92000 196.420
43.96000 197.077
44.00000 201.544
44.04000 198.697
44.08000 177.099
44.12000 200.165
44.16000 190.463
44.20000 188.063
44.24000 185.275
44.28000 191.604
44.32000 189.000
44.36000 196.706
44.40000 199.901
44.44000 204.806
44.48000 199.646
44.52000 204.574
44.56000 207.319
44.60000 212.500
44.64000 211.920
44.68000 219.681
44.72000 221.751
44.76000 213.192
44.80000 215.302
44.84000 215.975
44.88000 215.431
44.92000 225.290
44.96000 215.411
45.00000 228.665
45.04000 221.979
45.08000 224.467
45.12000 208.976
45.16000 223.931
45.20000 228.508
45.24000 227.794
45.28000 220.738
45.32000 213.069
45.36000 217.443
45.40000 207.222
45.44000 204.174
45.48000 216.482
45.52000 210.471
45.56000 194.802
45.60000 201.756
45.64000 183.333
45.68000 194.469
45.72000 186.317
45.76000 183.545
45.80000 186.736
45.84000 185.432
45.88000 181.899
45.92000 177.918
45.96000 183.909
46.00000 175.602
46.04000 171.364
46.08000 177.919
46.12000 175.491
46.16000 177.134
46.20000 172.964
46.24000 169.595
46.28000 169.419
46.32000 176.915
46.36000 181.941
46.40000 180.745
46.44000 170.175
46.48000 186.863
46.52000 177.596
46.56000 178.685
46.60000 164.460
46.64000 176.289
46.68000 171.719
46.72000 176.836
46.76000 179.368
46.80000 169.884
46.84000 180.791
46.88000 170.987
46.92000 177.990
46.96000 179.821
47.00000 173.967
47.04000 168.344
47.08000 172.879
47.12000 167.510
47.16000 161.572
47.20000 167.825
47.24000 181.046
47.28000 161.849
47.32000 170.414
47.36000 164.580
47.40000 167.584
47.44000 163.032
47.48000 168.038
47.52000 165.703
47.56000 154.264
47.60000 160.152
47.64000 162.755
47.68000 153.054
47.72000 159.445
47.76000 152.976
47.80000 159.318
47.84000 154.854
47.88000 164.262
47.92000 170.066
47.96000 158.983
48.00000 168.900
48.04000 164.190
48.08000 155.160
48.12000 156.656
48.16000 169.431
48.20000 152.861
48.24000 164.554
48.28000 169.639
48.32000 167.820
48.36000 157.529
48.40000 158.502
48.44000 175.227
48.48000 162.591
48.52000 160.871
48.56000 156.407
48.60000 162.691
48.64000 149.856
48.68000 158.867
48.72000 158.190
48.76000 153.429
48.80000 155.088
48.84000 149.762
48.88000 158.397
48.92000 161.274
48.96000 160.408
49.00000 154.982
49.04000 160.035
49.08000 146.920
49.12000 155.696
49.16000 156.587
49.20000 166.053
49.24000 157.394
49.28000 161.588
49.32000 162.830
49.36000 151.936
49.40000 160.180
49.44000 161.513
49.48000 152.470
49.52000 144.615
49.56000 146.362
49.60000 160.914
49.64000 151.748
49.68000 147.577
49.72000 169.019
49.76000 151.369
49.80000 150.780
49.84000 154.756
49.88000 155.811
49.92000 146.596
49.96000 150.468
50.00000 153.544
50.04000 153.676
50.08000 158.911
50.12000 159.291
50.16000 144.297
50.20000 152.558
50.24000 157.403
50.28000 155.638
50.32000 165.819
50.36000 148.100
50.40000 159.573
50.44000 155.201
50.48000 160.839
50.52000 149.839
50.56000 170.618
50.60000 172.412
50.64000 174.893
50.68000 170.470
50.72000 168.083
50.76000 163.033
50.80000 157.215
50.84000 166.803
50.88000 159.473
50.92000 149.170
50.96000 160.169
51.00000 152.901
51.04000 148.987
51.08000 157.475
51.12000 147.842
51.16000 137.959
51.20000 152.999
51.24000 144.926
51.28000 145.681
51.32000 141.974
51.36000 132.176
51.40000 147.307
51.44000 156.951
51.48000 146.957
51.52000 131.328
51.56000 158.751
51.60000 150.810
51.64000 139.924
51.68000 153.874
51.72000 141.109
51.76000 141.031
51.80000 139.929
51.84000 148.443
51.88000 136.914
51.92000 146.549
51.96000 143.372
52.00000 142.242
52.04000 136.073
52.08000 133.162
52.12000 148.358
52.16000 141.014
52.20000 143.701
52.24000 143.603
52.28000 144.678
52.32000 146.641
52.36000 139.534
52.40000 149.899
52.44000 138.176
52.48000 136.209
52.52000 135.702
52.56000 144.751
52.60000 131.567
52.64000 136.674
52.68000 144.301
52.72000 135.553
52.76000 137.189
52.80000 137.499
52.84000 136.879
52.88000 138.459
52.92000 144.832
52.96000 148.903
53.00000 141.514
53.04000 135.547
53.08000 131.921
53.12000 146.548
53.16000 149.731
53.20000 141.270
53.24000 131.196
53.28000 139.274
53.32000 147.857
53.36000 144.830
53.40000 144.818
53.44000 146.087
53.48000 154.059
53.52000 140.311
53.56000 138.401
53.60000 141.880
53.64000 154.998
53.68000 142.159
53.72000 142.706
53.76000 136.980
53.80000 145.495
53.84000 146.958
53.88000 128.686
53.92000 132.615
53.96000 145.899
54.00000 137.877
54.04000 134.438
54.08000 135.666
54.12000 140.141
54.16000 139.735
54.20000 138.434
54.24000 148.465
54.28000 144.410
54.32000 147.506
54.36000 135.277
54.40000 140.742
54.44000 131.263
54.48000 127.196
54.52000 138.955
54.56000 143.517
54.60000 138.995
54.64000 133.901
54.68000 139.021
54.72000 136.484
54.76000 137.896
54.80000 134.653
54.84000 139.824
54.88000 143.602
54.92000 151.963
54.96000 140.833
55.00000 155.791
55.04000 146.232
55.08000 141.226
55.12000 142.466
55.16000 153.757
55.20000 164.333
55.24000 160.165
55.28000 155.508
55.32000 160.529
55.36000 158.826
55.40000 147.679
55.44000 173.195
55.48000 178.034
55.52000 179.030
55.56000 188.655
55.60000 212.294
55.64000 215.707
55.68000 250.771
55.72000 241.645
55.76000 259.604
55.80000 275.960
55.84000 315.842
55.88000 330.160
55.92000 314.235
55.96000 314.578
56.00000 313.480
56.04000 307.255
56.08000 301.147
56.12000 266.692
56.16000 245.688
56.20000 231.191
56.24000 228.563
56.28000 203.253
56.32000 188.497
56.36000 171.496
56.40000 176.952
56.44000 167.223
56.48000 167.696
56.52000 159.192
56.56000 148.310
56.60000 146.620
56.64000 141.888
56.68000 155.737
56.72000 146.681
56.76000 132.035
56.80000 135.083
56.84000 143.330
56.88000 130.674
56.92000 130.138
56.96000 128.950
57.00000 130.736
57.04000 124.848
57.08000 135.009
57.12000 124.554
57.16000 138.048
57.20000 127.607
57.24000 131.415
57.28000 130.983
57.32000 126.220
57.36000 139.206
57.40000 118.674
57.44000 124.715
57.48000 120.161
57.52000 120.081
57.56000 126.300
57.60000 126.796
57.64000 116.273
57.68000 127.742
57.72000 122.934
57.76000 127.125
57.80000 128.445
57.84000 120.616
57.88000 120.176
57.92000 122.529
57.96000 131.386
58.00000 114.161
58.04000 132.040
58.08000 127.135
58.12000 119.947
58.16000 116.484
58.20000 121.573
58.24000 120.700
58.28000 119.431
58.32000 110.453
58.36000 125.923
58.40000 123.574
58.44000 125.839
58.48000 119.494
58.52000 125.708
58.56000 123.878
58.60000 113.943
58.64000 111.552
58.68000 121.378
58.72000 115.272
58.76000 122.103
58.80000 114.476
58.84000 116.268
58.88000 121.103
58.92000 130.429
58.96000 113.516
59.00000 105.514
59.04000 124.023
59.08000 116.381
59.12000 117.842
59.16000 114.442
59.20000 116.385
59.24000 112.360
59.28000 124.881
59.32000 119.230
59.36000 122.487
59.40000 115.126
59.44000 117.681
59.48000 114.176
59.52000 114.636
59.56000 110.969
59.60000 120.673
59.64000 110.155
59.68000 117.043
59.72000 115.497
59.76000 121.299
59.80000 108.156
59.84000 112.796
59.88000 117.732
59.92000 112.738
59.96000 109.135
60.00000 126.921
60.04000 110.113
60.08000 108.974
60.12000 117.545
60.16000 119.476
60.20000 111.952
60.24000 107.460
60.28000 113.757
60.32000 119.323
60.36000 125.950
60.40000 125.294
60.44000 118.118
60.48000 115.056
60.52000 122.211
60.56000 117.884
60.60000 116.444
60.64000 122.170
60.68000 128.834
60.72000 113.382
60.76000 126.722
60.80000 123.119
60.84000 122.142
60.88000 118.349
60.92000 119.926
60.96000 115.006
61.00000 120.703
61.04000 123.189
61.08000 128.799
61.12000 126.868
61.16000 117.846
61.20000 125.356
61.24000 118.700
61.28000 124.995
61.32000 131.226
61.36000 123.479
61.40000 124.384
61.44000 130.036
61.48000 133.434
61.52000 138.024
61.56000 183.596
61.60000 235.998
61.64000 274.905
61.68000 295.429
61.72000 290.989
61.76000 301.433
61.80000 228.123
61.84000 177.275
61.88000 151.884
61.92000 131.728
61.96000 121.648
62.00000 130.614
62.04000 133.817
62.08000 134.363
62.12000 134.009
62.16000 129.063
62.20000 131.666
62.24000 130.831
62.28000 120.890
62.32000 131.215
62.36000 132.324
62.40000 123.026
62.44000 125.784
62.48000 132.698
62.52000 125.331
62.56000 138.950
62.60000 134.628
62.64000 134.061
62.68000 123.996
62.72000 130.056
62.76000 129.014
62.80000 132.354
62.84000 130.433
62.88000 141.649
62.92000 129.942
62.96000 125.862
63.00000 139.890
63.04000 121.457
63.08000 140.258
63.12000 137.928
63.16000 138.588
63.20000 118.902
63.24000 130.618
63.28000 130.372
63.32000 139.408
63.36000 136.246
63.40000 138.314
63.44000 133.997
63.48000 136.040
63.52000 142.544
63.56000 135.486
63.60000 140.220
63.64000 138.654
63.68000 143.675
63.72000 132.124
63.76000 146.868
63.80000 140.351
63.84000 134.344
63.88000 144.950
63.92000 145.517
63.96000 147.078
64.00000 152.482
64.04000 149.792
64.08000 149.946
64.12000 137.415
64.16000 145.289
64.20000 159.549
64.24000 152.648
64.28000 154.152
64.32000 154.558
64.36000 152.955
64.40000 169.087
64.44000 156.185
64.48000 160.714
64.52000 158.804
64.56000 169.364
64.60000 158.694
64.64000 165.886
64.68000 183.766
64.72000 164.831
64.76000 164.775
64.80000 166.039
64.84000 187.199
64.88000 179.275
64.92000 184.680
64.96000 187.174
65.00000 181.334
65.04000 186.160
65.08000 189.895
65.12000 198.489
65.16000 206.146
65.20000 208.654
65.24000 222.307
65.28000 228.214
65.32000 239.570
65.36000 253.062
65.40000 243.641
65.44000 266.312
65.48000 264.964
65.52000 291.779
65.56000 318.733
65.60000 361.646
65.64000 402.561
65.68000 557.923
65.72000 845.118
65.76000 1350.229
65.80000 1741.720
65.84000 1929.937
65.88000 1992.702
65.92000 1899.789
65.96000 1614.499
66.00000 1089.380
66.04000 698.243
66.08000 480.865
66.12000 409.200
66.16000 363.313
66.20000 365.456
66.24000 391.621
66.28000 428.844
66.32000 523.432
66.36000 597.884
66.40000 606.728
66.44000 612.787
66.48000 617.392
66.52000 555.981
66.56000 464.145
66.60000 387.939
66.64000 367.705
66.68000 368.213
66.72000 355.493
66.76000 362.934
66.80000 363.028
66.84000 353.704
66.88000 370.625
66.92000 352.517
66.96000 367.541
67.00000 367.482
67.04000 377.108
67.08000 385.572
67.12000 386.413
67.16000 396.975
67.20000 392.901
67.24000 410.335
67.28000 399.276
67.32000 411.549
67.36000 398.002
67.40000 419.770
67.44000 418.294
67.48000 425.020
67.52000 412.717
67.56000 446.839
67.60000 443.064
67.64000 451.110
67.68000 457.529
67.72000 464.449
67.76000 459.869
67.80000 469.906
67.84000 485.843
67.88000 486.348
67.92000 485.569
67.96000 503.859
68.00000 509.643
68.04000 515.387
68.08000 528.301
68.12000 539.588
68.16000 550.786
68.20000 525.590
68.24000 570.721
68.28000 562.661
68.32000 606.614
68.36000 628.055
68.40000 628.730
68.44000 635.199
68.48000 669.085
68.52000 700.461
68.56000 757.128
68.60000 832.018
68.64000 970.178
68.68000 1102.125
68.72000 1255.797
68.76000 1453.796
68.80000 1625.467
68.84000 1852.431
68.88000 2229.369
68.92000 3161.272
68.96000 8381.368
69.00000 19724.213
69.04000 33046.066
69.08000 40422.484
69.12000 43445.484
69.16000 46136.066
69.20000 46818.773
69.24000 38538.402
69.28000 28009.764
69.32000 22611.295
69.36000 21192.518
69.40000 18020.313
69.44000 11843.499
69.48000 5318.174
69.52000 2306.436
69.56000 1404.539
69.60000 1097.816
69.64000 927.119
69.68000 837.411
69.72000 752.637
69.76000 680.219
69.80000 640.443
69.84000 628.617
69.88000 575.749
69.92000 536.430
69.96000 519.537
70.00000 501.668