File: XRD/XRD/07-10-2025 Dep 6/XY Data/BTO_Mapping_Theta2Theta_07-10-2025_001_24_-15-000_25-981.xy
20.00000 465.884
20.04000 456.927
20.08000 461.969
20.12000 477.797
20.16000 453.705
20.20000 443.781
20.24000 485.891
20.28000 478.198
20.32000 450.253
20.36000 463.224
20.40000 467.146
20.44000 489.639
20.48000 490.443
20.52000 458.028
20.56000 476.676
20.60000 456.688
20.64000 455.198
20.68000 468.809
20.72000 458.852
20.76000 469.565
20.80000 450.543
20.84000 453.011
20.88000 465.951
20.92000 444.408
20.96000 459.133
21.00000 448.742
21.04000 448.061
21.08000 451.586
21.12000 487.381
21.16000 455.028
21.20000 460.772
21.24000 450.890
21.28000 466.121
21.32000 452.275
21.36000 477.846
21.40000 462.715
21.44000 459.829
21.48000 463.841
21.52000 458.010
21.56000 452.233
21.60000 453.460
21.64000 476.558
21.68000 466.104
21.72000 466.080
21.76000 476.815
21.80000 487.500
21.84000 475.011
21.88000 494.689
21.92000 504.456
21.96000 536.003
22.00000 532.450
22.04000 556.917
22.08000 545.597
22.12000 548.769
22.16000 528.696
22.20000 526.404
22.24000 525.954
22.28000 510.963
22.32000 489.693
22.36000 481.158
22.40000 464.064
22.44000 457.535
22.48000 457.620
22.52000 451.571
22.56000 444.958
22.60000 447.006
22.64000 428.221
22.68000 444.771
22.72000 433.013
22.76000 427.975
22.80000 437.458
22.84000 435.035
22.88000 434.255
22.92000 438.803
22.96000 436.321
23.00000 431.877
23.04000 430.883
23.08000 440.471
23.12000 428.722
23.16000 429.604
23.20000 419.125
23.24000 420.471
23.28000 423.952
23.32000 425.702
23.36000 436.991
23.40000 437.053
23.44000 412.383
23.48000 426.198
23.52000 431.637
23.56000 431.547
23.60000 439.327
23.64000 417.568
23.68000 435.789
23.72000 456.193
23.76000 430.271
23.80000 441.857
23.84000 484.364
23.88000 449.931
23.92000 468.137
23.96000 489.981
24.00000 488.344
24.04000 450.215
24.08000 464.132
24.12000 465.972
24.16000 447.222
24.20000 434.605
24.24000 440.792
24.28000 430.205
24.32000 426.634
24.36000 424.721
24.40000 420.534
24.44000 414.764
24.48000 379.190
24.52000 421.547
24.56000 402.423
24.60000 393.697
24.64000 394.141
24.68000 422.864
24.72000 406.483
24.76000 417.292
24.80000 413.050
24.84000 412.243
24.88000 393.663
24.92000 405.145
24.96000 392.848
25.00000 402.675
25.04000 402.107
25.08000 399.885
25.12000 389.301
25.16000 374.484
25.20000 407.976
25.24000 393.192
25.28000 406.701
25.32000 405.127
25.36000 390.325
25.40000 400.437
25.44000 389.572
25.48000 383.860
25.52000 400.035
25.56000 408.808
25.60000 390.784
25.64000 389.071
25.68000 391.675
25.72000 399.453
25.76000 379.345
25.80000 378.138
25.84000 384.114
25.88000 388.385
25.92000 365.932
25.96000 380.428
26.00000 394.539
26.04000 399.285
26.08000 377.434
26.12000 389.125
26.16000 377.210
26.20000 384.163
26.24000 363.472
26.28000 376.536
26.32000 395.043
26.36000 378.026
26.40000 383.613
26.44000 357.646
26.48000 383.712
26.52000 383.111
26.56000 398.801
26.60000 370.741
26.64000 381.072
26.68000 375.484
26.72000 375.797
26.76000 358.293
26.80000 381.166
26.84000 358.763
26.88000 382.029
26.92000 374.979
26.96000 381.316
27.00000 375.633
27.04000 377.089
27.08000 369.427
27.12000 370.342
27.16000 363.931
27.20000 375.412
27.24000 382.485
27.28000 377.938
27.32000 383.308
27.36000 373.750
27.40000 373.516
27.44000 370.379
27.48000 375.102
27.52000 379.469
27.56000 379.430
27.60000 365.042
27.64000 374.988
27.68000 361.137
27.72000 365.099
27.76000 352.296
27.80000 365.037
27.84000 361.238
27.88000 353.009
27.92000 361.598
27.96000 353.234
28.00000 354.523
28.04000 363.593
28.08000 356.831
28.12000 343.697
28.16000 356.524
28.20000 350.638
28.24000 352.135
28.28000 363.567
28.32000 353.719
28.36000 350.419
28.40000 372.194
28.44000 342.333
28.48000 356.210
28.52000 346.130
28.56000 355.222
28.60000 348.694
28.64000 351.287
28.68000 341.610
28.72000 334.743
28.76000 343.713
28.80000 350.475
28.84000 349.844
28.88000 343.880
28.92000 352.757
28.96000 336.227
29.00000 337.764
29.04000 343.273
29.08000 359.486
29.12000 342.521
29.16000 334.806
29.20000 338.721
29.24000 350.552
29.28000 337.505
29.32000 336.895
29.36000 346.027
29.40000 353.088
29.44000 336.478
29.48000 345.891
29.52000 340.627
29.56000 353.383
29.60000 354.201
29.64000 331.512
29.68000 343.034
29.72000 339.229
29.76000 359.149
29.80000 359.675
29.84000 356.139
29.88000 348.392
29.92000 357.638
29.96000 365.995
30.00000 361.164
30.04000 364.966
30.08000 358.534
30.12000 356.211
30.16000 362.330
30.20000 370.435
30.24000 368.048
30.28000 341.095
30.32000 354.275
30.36000 347.160
30.40000 360.626
30.44000 341.497
30.48000 336.385
30.52000 345.254
30.56000 358.441
30.60000 357.413
30.64000 346.360
30.68000 356.375
30.72000 340.887
30.76000 367.834
30.80000 366.287
30.84000 367.925
30.88000 384.122
30.92000 378.910
30.96000 401.892
31.00000 430.542
31.04000 452.545
31.08000 503.867
31.12000 564.461
31.16000 617.705
31.20000 736.612
31.24000 830.220
31.28000 968.036
31.32000 1065.260
31.36000 1144.323
31.40000 1145.217
31.44000 1093.407
31.48000 992.415
31.52000 896.309
31.56000 755.121
31.60000 672.285
31.64000 570.661
31.68000 512.162
31.72000 461.954
31.76000 414.646
31.80000 416.824
31.84000 389.138
31.88000 372.428
31.92000 357.582
31.96000 345.505
32.00000 349.142
32.04000 331.985
32.08000 329.470
32.12000 336.716
32.16000 328.786
32.20000 333.246
32.24000 322.215
32.28000 328.566
32.32000 330.517
32.36000 309.822
32.40000 316.724
32.44000 319.705
32.48000 323.062
32.52000 314.339
32.56000 324.719
32.60000 324.428
32.64000 313.537
32.68000 302.613
32.72000 304.072
32.76000 307.840
32.80000 344.001
32.84000 408.162
32.88000 455.226
32.92000 480.666
32.96000 515.815
33.00000 520.746
33.04000 486.156
33.08000 395.780
33.12000 364.852
33.16000 331.410
33.20000 275.349
33.24000 295.708
33.28000 291.762
33.32000 297.561
33.36000 292.810
33.40000 289.695
33.44000 289.741
33.48000 295.405
33.52000 290.765
33.56000 297.721
33.60000 295.212
33.64000 296.422
33.68000 290.145
33.72000 289.102
33.76000 298.176
33.80000 302.369
33.84000 294.292
33.88000 279.840
33.92000 296.955
33.96000 298.409
34.00000 287.744
34.04000 312.968
34.08000 304.896
34.12000 307.627
34.16000 335.397
34.20000 312.306
34.24000 312.100
34.28000 327.935
34.32000 314.812
34.36000 326.044
34.40000 331.593
34.44000 329.005
34.48000 309.156
34.52000 318.827
34.56000 330.095
34.60000 300.553
34.64000 278.309
34.68000 289.665
34.72000 291.821
34.76000 292.514
34.80000 289.135
34.84000 281.034
34.88000 277.351
34.92000 284.246
34.96000 276.576
35.00000 269.258
35.04000 276.380
35.08000 267.220
35.12000 264.520
35.16000 258.962
35.20000 269.458
35.24000 263.832
35.28000 246.979
35.32000 265.122
35.36000 263.378
35.40000 274.294
35.44000 277.236
35.48000 271.453
35.52000 259.905
35.56000 240.376
35.60000 244.191
35.64000 257.654
35.68000 259.235
35.72000 261.718
35.76000 268.083
35.80000 255.920
35.84000 249.525
35.88000 260.032
35.92000 254.988
35.96000 265.400
36.00000 250.038
36.04000 264.181
36.08000 258.295
36.12000 254.474
36.16000 267.002
36.20000 268.921
36.24000 254.545
36.28000 261.519
36.32000 247.418
36.36000 249.651
36.40000 263.992
36.44000 254.920
36.48000 254.437
36.52000 250.519
36.56000 257.168
36.60000 245.279
36.64000 249.389
36.68000 242.574
36.72000 246.131
36.76000 248.438
36.80000 256.812
36.84000 274.220
36.88000 264.521
36.92000 270.336
36.96000 263.400
37.00000 273.359
37.04000 267.179
37.08000 273.969
37.12000 271.209
37.16000 270.014
37.20000 249.280
37.24000 263.486
37.28000 253.174
37.32000 244.441
37.36000 249.192
37.40000 246.368
37.44000 240.933
37.48000 257.984
37.52000 251.190
37.56000 239.781
37.60000 256.118
37.64000 253.675
37.68000 245.001
37.72000 238.429
37.76000 235.706
37.80000 254.983
37.84000 244.496
37.88000 240.205
37.92000 244.212
37.96000 248.229
38.00000 258.008
38.04000 245.747
38.08000 249.244
38.12000 248.378
38.16000 253.249
38.20000 253.863
38.24000 255.884
38.28000 261.522
38.32000 279.898
38.36000 299.125
38.40000 314.664
38.44000 356.662
38.48000 425.746
38.52000 506.996
38.56000 606.631
38.60000 701.968
38.64000 828.793
38.68000 875.724
38.72000 925.815
38.76000 925.102
38.80000 907.233
38.84000 801.500
38.88000 686.309
38.92000 532.926
38.96000 452.332
39.00000 375.816
39.04000 320.734
39.08000 271.223
39.12000 245.010
39.16000 257.129
39.20000 229.125
39.24000 246.234
39.28000 238.679
39.32000 240.054
39.36000 249.719
39.40000 238.541
39.44000 238.498
39.48000 231.149
39.52000 217.715
39.56000 233.188
39.60000 237.450
39.64000 220.068
39.68000 232.872
39.72000 226.624
39.76000 234.005
39.80000 217.823
39.84000 220.779
39.88000 215.714
39.92000 218.750
39.96000 208.501
40.00000 212.247
40.04000 221.461
40.08000 221.765
40.12000 225.076
40.16000 228.556
40.20000 210.313
40.24000 205.316
40.28000 222.635
40.32000 210.722
40.36000 211.894
40.40000 218.186
40.44000 223.161
40.48000 216.234
40.52000 213.680
40.56000 206.221
40.60000 199.949
40.64000 219.601
40.68000 204.714
40.72000 216.868
40.76000 200.249
40.80000 219.630
40.84000 216.099
40.88000 203.635
40.92000 213.912
40.96000 221.220
41.00000 196.811
41.04000 209.917
41.08000 197.643
41.12000 214.240
41.16000 211.497
41.20000 202.314
41.24000 208.896
41.28000 200.689
41.32000 200.625
41.36000 204.725
41.40000 203.274
41.44000 199.461
41.48000 211.830
41.52000 208.606
41.56000 210.132
41.60000 202.645
41.64000 194.318
41.68000 207.165
41.72000 194.770
41.76000 189.095
41.80000 219.713
41.84000 203.718
41.88000 203.611
41.92000 209.725
41.96000 203.113
42.00000 208.617
42.04000 194.294
42.08000 204.744
42.12000 212.668
42.16000 200.319
42.20000 201.364
42.24000 202.363
42.28000 202.442
42.32000 195.279
42.36000 197.801
42.40000 215.670
42.44000 215.974
42.48000 200.240
42.52000 210.015
42.56000 188.570
42.60000 195.634
42.64000 199.617
42.68000 200.061
42.72000 198.986
42.76000 196.156
42.80000 197.129
42.84000 194.546
42.88000 200.957
42.92000 196.242
42.96000 196.209
43.00000 201.060
43.04000 200.186
43.08000 203.384
43.12000 190.771
43.16000 198.372
43.20000 184.284
43.24000 187.764
43.28000 201.721
43.32000 193.170
43.36000 193.458
43.40000 187.313
43.44000 188.025
43.48000 200.425
43.52000 187.052
43.56000 195.905
43.60000 190.557
43.64000 192.351
43.68000 200.411
43.72000 191.967
43.76000 199.698
43.80000 181.202
43.84000 194.130
43.88000 176.862
43.92000 195.300
43.96000 193.317
44.00000 180.556
44.04000 192.411
44.08000 189.287
44.12000 181.484
44.16000 182.814
44.20000 187.041
44.24000 189.021
44.28000 194.979
44.32000 186.483
44.36000 205.052
44.40000 206.612
44.44000 201.284
44.48000 197.072
44.52000 210.184
44.56000 206.211
44.60000 217.806
44.64000 205.740
44.68000 206.005
44.72000 222.454
44.76000 227.585
44.80000 232.569
44.84000 219.344
44.88000 237.898
44.92000 251.072
44.96000 263.763
45.00000 265.653
45.04000 271.924
45.08000 268.557
45.12000 265.680
45.16000 267.742
45.20000 254.836
45.24000 261.042
45.28000 242.490
45.32000 226.072
45.36000 224.988
45.40000 219.523
45.44000 221.947
45.48000 215.406
45.52000 211.413
45.56000 202.506
45.60000 203.603
45.64000 185.410
45.68000 200.252
45.72000 194.988
45.76000 193.628
45.80000 190.834
45.84000 203.347
45.88000 189.182
45.92000 189.746
45.96000 189.076
46.00000 181.962
46.04000 179.795
46.08000 174.747
46.12000 178.703
46.16000 194.493
46.20000 166.125
46.24000 167.797
46.28000 185.538
46.32000 175.316
46.36000 164.415
46.40000 179.666
46.44000 174.414
46.48000 170.750
46.52000 165.739
46.56000 178.711
46.60000 184.538
46.64000 174.070
46.68000 175.646
46.72000 161.899
46.76000 165.438
46.80000 173.672
46.84000 156.136
46.88000 177.053
46.92000 162.678
46.96000 161.753
47.00000 165.369
47.04000 164.434
47.08000 167.824
47.12000 161.184
47.16000 167.069
47.20000 152.254
47.24000 163.981
47.28000 161.907
47.32000 158.205
47.36000 165.586
47.40000 175.743
47.44000 167.225
47.48000 149.555
47.52000 154.639
47.56000 154.470
47.60000 152.214
47.64000 176.908
47.68000 163.429
47.72000 158.256
47.76000 155.576
47.80000 154.700
47.84000 153.016
47.88000 165.027
47.92000 157.587
47.96000 154.381
48.00000 158.745
48.04000 145.409
48.08000 161.701
48.12000 166.647
48.16000 156.508
48.20000 148.491
48.24000 161.721
48.28000 151.781
48.32000 145.781
48.36000 147.478
48.40000 151.596
48.44000 157.849
48.48000 157.404
48.52000 161.912
48.56000 156.812
48.60000 153.146
48.64000 155.073
48.68000 169.220
48.72000 153.611
48.76000 154.942
48.80000 153.913
48.84000 152.904
48.88000 153.434
48.92000 150.406
48.96000 149.260
49.00000 162.882
49.04000 155.871
49.08000 153.469
49.12000 153.374
49.16000 151.211
49.20000 158.539
49.24000 144.961
49.28000 137.297
49.32000 150.550
49.36000 158.633
49.40000 154.430
49.44000 155.517
49.48000 156.007
49.52000 147.211
49.56000 147.663
49.60000 166.076
49.64000 147.046
49.68000 147.461
49.72000 147.245
49.76000 154.193
49.80000 155.799
49.84000 146.082
49.88000 146.113
49.92000 148.417
49.96000 146.226
50.00000 140.805
50.04000 150.041
50.08000 154.746
50.12000 157.470
50.16000 148.770
50.20000 151.734
50.24000 154.321
50.28000 143.128
50.32000 153.609
50.36000 162.887
50.40000 163.203
50.44000 157.346
50.48000 162.387
50.52000 167.171
50.56000 169.477
50.60000 183.132
50.64000 168.886
50.68000 171.636
50.72000 166.667
50.76000 159.362
50.80000 158.032
50.84000 157.215
50.88000 156.232
50.92000 148.988
50.96000 149.504
51.00000 149.020
51.04000 153.506
51.08000 148.822
51.12000 155.011
51.16000 152.806
51.20000 146.618
51.24000 143.632
51.28000 151.202
51.32000 142.215
51.36000 131.611
51.40000 138.328
51.44000 137.512
51.48000 141.149
51.52000 141.069
51.56000 154.404
51.60000 130.396
51.64000 136.736
51.68000 135.792
51.72000 142.161
51.76000 137.094
51.80000 141.447
51.84000 132.674
51.88000 136.681
51.92000 135.157
51.96000 135.937
52.00000 136.478
52.04000 132.748
52.08000 133.863
52.12000 142.930
52.16000 139.998
52.20000 143.851
52.24000 129.094
52.28000 138.850
52.32000 136.605
52.36000 139.374
52.40000 144.226
52.44000 136.117
52.48000 140.921
52.52000 139.207
52.56000 137.551
52.60000 140.607
52.64000 132.731
52.68000 136.341
52.72000 137.344
52.76000 131.134
52.80000 128.193
52.84000 142.340
52.88000 133.212
52.92000 140.023
52.96000 140.758
53.00000 138.519
53.04000 142.170
53.08000 137.023
53.12000 143.391
53.16000 142.569
53.20000 147.191
53.24000 148.622
53.28000 144.779
53.32000 146.262
53.36000 157.436
53.40000 155.359
53.44000 146.990
53.48000 153.740
53.52000 144.837
53.56000 150.779
53.60000 144.922
53.64000 156.995
53.68000 139.036
53.72000 147.524
53.76000 133.017
53.80000 141.414
53.84000 139.895
53.88000 139.918
53.92000 137.355
53.96000 137.588
54.00000 139.913
54.04000 144.061
54.08000 129.645
54.12000 139.177
54.16000 141.174
54.20000 137.419
54.24000 145.951
54.28000 128.516
54.32000 135.509
54.36000 131.064
54.40000 147.218
54.44000 146.104
54.48000 142.778
54.52000 136.585
54.56000 127.136
54.60000 132.341
54.64000 138.141
54.68000 149.672
54.72000 135.835
54.76000 133.665
54.80000 135.279
54.84000 136.907
54.88000 141.811
54.92000 143.443
54.96000 140.208
55.00000 135.854
55.04000 135.607
55.08000 141.112
55.12000 144.501
55.16000 148.538
55.20000 145.057
55.24000 144.466
55.28000 157.352
55.32000 148.420
55.36000 158.425
55.40000 154.684
55.44000 163.274
55.48000 191.563
55.52000 189.702
55.56000 204.099
55.60000 219.484
55.64000 267.090
55.68000 298.217
55.72000 333.716
55.76000 390.196
55.80000 440.461
55.84000 491.082
55.88000 535.393
55.92000 560.512
55.96000 579.593
56.00000 564.857
56.04000 531.384
56.08000 492.169
56.12000 451.549
56.16000 393.331
56.20000 354.923
56.24000 285.173
56.28000 257.728
56.32000 237.726
56.36000 203.554
56.40000 188.410
56.44000 171.366
56.48000 162.853
56.52000 152.491
56.56000 146.519
56.60000 137.209
56.64000 142.460
56.68000 133.582
56.72000 138.842
56.76000 138.991
56.80000 142.861
56.84000 131.034
56.88000 125.983
56.92000 128.024
56.96000 125.009
57.00000 132.200
57.04000 130.932
57.08000 133.924
57.12000 135.793
57.16000 123.688
57.20000 121.952
57.24000 127.053
57.28000 128.938
57.32000 124.633
57.36000 123.489
57.40000 124.872
57.44000 121.789
57.48000 123.021
57.52000 123.542
57.56000 131.883
57.60000 124.630
57.64000 117.319
57.68000 117.727
57.72000 114.394
57.76000 121.887
57.80000 116.105
57.84000 122.691
57.88000 135.749
57.92000 125.623
57.96000 120.633
58.00000 135.259
58.04000 120.409
58.08000 119.164
58.12000 134.800
58.16000 119.006
58.20000 126.357
58.24000 120.471
58.28000 126.355
58.32000 125.709
58.36000 117.090
58.40000 115.893
58.44000 126.858
58.48000 114.878
58.52000 126.293
58.56000 117.959
58.60000 122.191
58.64000 106.645
58.68000 123.106
58.72000 125.073
58.76000 113.250
58.80000 120.197
58.84000 116.473
58.88000 112.673
58.92000 122.540
58.96000 116.782
59.00000 113.073
59.04000 116.521
59.08000 114.272
59.12000 122.670
59.16000 127.038
59.20000 114.451
59.24000 117.897
59.28000 116.783
59.32000 119.060
59.36000 117.514
59.40000 121.743
59.44000 115.403
59.48000 123.754
59.52000 113.623
59.56000 107.248
59.60000 118.113
59.64000 115.059
59.68000 110.345
59.72000 115.334
59.76000 108.028
59.80000 105.247
59.84000 116.404
59.88000 111.773
59.92000 108.029
59.96000 121.790
60.00000 119.661
60.04000 114.047
60.08000 116.323
60.12000 113.696
60.16000 106.037
60.20000 123.457
60.24000 113.985
60.28000 110.868
60.32000 111.194
60.36000 119.710
60.40000 104.439
60.44000 114.288
60.48000 116.568
60.52000 114.073
60.56000 116.888
60.60000 113.679
60.64000 112.392
60.68000 124.601
60.72000 115.809
60.76000 109.491
60.80000 123.588
60.84000 117.754
60.88000 120.900
60.92000 118.237
60.96000 115.236
61.00000 115.343
61.04000 133.104
61.08000 118.386
61.12000 117.897
61.16000 121.961
61.20000 121.458
61.24000 128.548
61.28000 122.911
61.32000 119.466
61.36000 121.940
61.40000 123.334
61.44000 117.786
61.48000 137.101
61.52000 162.453
61.56000 202.633
61.60000 250.026
61.64000 287.911
61.68000 285.786
61.72000 296.625
61.76000 261.495
61.80000 213.077
61.84000 158.680
61.88000 142.236
61.92000 126.820
61.96000 123.308
62.00000 130.893
62.04000 125.937
62.08000 133.180
62.12000 124.403
62.16000 134.844
62.20000 126.584
62.24000 119.408
62.28000 120.306
62.32000 127.718
62.36000 121.807
62.40000 126.420
62.44000 126.391
62.48000 124.258
62.52000 116.730
62.56000 121.633
62.60000 129.532
62.64000 124.970
62.68000 125.223
62.72000 128.075
62.76000 128.950
62.80000 130.948
62.84000 127.713
62.88000 130.877
62.92000 127.739
62.96000 120.286
63.00000 124.707
63.04000 128.402
63.08000 134.862
63.12000 132.290
63.16000 127.601
63.20000 137.663
63.24000 132.012
63.28000 130.946
63.32000 129.920
63.36000 135.335
63.40000 126.241
63.44000 137.604
63.48000 135.653
63.52000 125.706
63.56000 130.794
63.60000 140.359
63.64000 135.969
63.68000 132.282
63.72000 133.717
63.76000 146.396
63.80000 152.550
63.84000 137.382
63.88000 145.610
63.92000 142.908
63.96000 137.293
64.00000 135.619
64.04000 146.430
64.08000 147.957
64.12000 147.071
64.16000 139.691
64.20000 149.807
64.24000 142.594
64.28000 148.561
64.32000 151.613
64.36000 147.845
64.40000 146.459
64.44000 145.045
64.48000 158.285
64.52000 165.838
64.56000 158.636
64.60000 160.028
64.64000 164.106
64.68000 161.761
64.72000 158.551
64.76000 174.121
64.80000 162.087
64.84000 162.822
64.88000 173.534
64.92000 172.552
64.96000 193.207
65.00000 193.179
65.04000 182.728
65.08000 193.260
65.12000 194.712
65.16000 210.915
65.20000 215.691
65.24000 220.083
65.28000 230.208
65.32000 238.277
65.36000 237.039
65.40000 243.210
65.44000 263.048
65.48000 269.983
65.52000 304.850
65.56000 319.375
65.60000 365.042
65.64000 443.025
65.68000 620.980
65.72000 976.504
65.76000 1459.452
65.80000 1821.288
65.84000 1943.975
65.88000 1966.816
65.92000 1850.771
65.96000 1393.173
66.00000 910.479
66.04000 602.626
66.08000 452.501
66.12000 384.078
66.16000 349.827
66.20000 378.728
66.24000 399.196
66.28000 456.384
66.32000 533.322
66.36000 591.662
66.40000 619.983
66.44000 617.063
66.48000 596.746
66.52000 493.492
66.56000 423.770
66.60000 378.201
66.64000 354.771
66.68000 346.172
66.72000 346.492
66.76000 359.709
66.80000 334.343
66.84000 349.366
66.88000 354.913
66.92000 355.735
66.96000 358.399
67.00000 364.617
67.04000 379.204
67.08000 378.468
67.12000 371.515
67.16000 385.978
67.20000 377.880
67.24000 385.729
67.28000 384.594
67.32000 400.495
67.36000 397.613
67.40000 401.937
67.44000 415.669
67.48000 413.319
67.52000 419.773
67.56000 434.697
67.60000 436.713
67.64000 436.079
67.68000 428.983
67.72000 436.999
67.76000 451.322
67.80000 467.958
67.84000 473.273
67.88000 471.963
67.92000 480.167
67.96000 490.681
68.00000 487.715
68.04000 506.647
68.08000 504.065
68.12000 520.928
68.16000 555.578
68.20000 545.466
68.24000 561.532
68.28000 565.040
68.32000 583.437
68.36000 608.870
68.40000 646.160
68.44000 653.826
68.48000 659.823
68.52000 693.946
68.56000 763.678
68.60000 836.340
68.64000 995.405
68.68000 1157.470
68.72000 1332.891
68.76000 1478.575
68.80000 1671.361
68.84000 1932.918
68.88000 2416.479
68.92000 3934.077
68.96000 11165.212
69.00000 24050.637
69.04000 35635.480
69.08000 41227.996
69.12000 43829.043
69.16000 46460.910
69.20000 44536.086
69.24000 34415.688
69.28000 25917.580
69.32000 21865.564
69.36000 20346.709
69.40000 16007.683
69.44000 9369.310
69.48000 4095.764
69.52000 1868.774
69.56000 1256.992
69.60000 1002.851
69.64000 899.413
69.68000 789.105
69.72000 732.903
69.76000 627.082
69.80000 613.395
69.84000 599.234
69.88000 559.614
69.92000 536.831
69.96000 502.036
70.00000 481.382