File: XRD/XRD/07-10-2025 Dep 6/XY Data/BTO_Mapping_Theta2Theta_07-10-2025_001_58_9-135_-4-067.xy
20.00000 490.751
20.04000 466.671
20.08000 463.552
20.12000 483.061
20.16000 465.498
20.20000 473.453
20.24000 455.400
20.28000 465.476
20.32000 483.265
20.36000 463.361
20.40000 458.861
20.44000 480.294
20.48000 481.367
20.52000 484.793
20.56000 471.002
20.60000 460.262
20.64000 450.512
20.68000 465.078
20.72000 454.401
20.76000 461.859
20.80000 466.223
20.84000 473.969
20.88000 479.479
20.92000 463.915
20.96000 458.294
21.00000 468.413
21.04000 469.344
21.08000 463.678
21.12000 460.251
21.16000 471.407
21.20000 455.734
21.24000 470.219
21.28000 452.701
21.32000 440.029
21.36000 462.482
21.40000 450.017
21.44000 458.292
21.48000 446.235
21.52000 459.316
21.56000 452.584
21.60000 472.434
21.64000 490.951
21.68000 479.160
21.72000 460.609
21.76000 473.690
21.80000 474.851
21.84000 476.045
21.88000 476.011
21.92000 480.450
21.96000 502.082
22.00000 510.241
22.04000 522.173
22.08000 498.671
22.12000 498.537
22.16000 504.368
22.20000 501.557
22.24000 505.923
22.28000 485.295
22.32000 476.425
22.36000 463.404
22.40000 448.553
22.44000 457.823
22.48000 434.167
22.52000 451.994
22.56000 434.400
22.60000 444.067
22.64000 447.753
22.68000 441.596
22.72000 439.934
22.76000 441.379
22.80000 461.021
22.84000 456.961
22.88000 427.796
22.92000 436.046
22.96000 441.863
23.00000 440.319
23.04000 438.099
23.08000 428.526
23.12000 425.833
23.16000 444.225
23.20000 449.813
23.24000 431.733
23.28000 438.208
23.32000 432.566
23.36000 441.190
23.40000 438.058
23.44000 418.072
23.48000 426.010
23.52000 432.021
23.56000 442.028
23.60000 440.275
23.64000 442.209
23.68000 442.619
23.72000 460.715
23.76000 462.378
23.80000 485.028
23.84000 492.881
23.88000 491.688
23.92000 522.598
23.96000 492.745
24.00000 517.348
24.04000 503.800
24.08000 490.726
24.12000 501.127
24.16000 485.812
24.20000 464.897
24.24000 458.666
24.28000 439.243
24.32000 441.493
24.36000 443.992
24.40000 413.545
24.44000 435.180
24.48000 420.421
24.52000 417.056
24.56000 409.385
24.60000 415.649
24.64000 396.769
24.68000 410.886
24.72000 404.565
24.76000 409.543
24.80000 402.234
24.84000 393.561
24.88000 394.929
24.92000 416.412
24.96000 414.388
25.00000 400.787
25.04000 421.007
25.08000 403.013
25.12000 403.429
25.16000 412.114
25.20000 395.443
25.24000 393.495
25.28000 404.984
25.32000 412.069
25.36000 404.557
25.40000 391.446
25.44000 378.134
25.48000 390.057
25.52000 403.796
25.56000 390.384
25.60000 394.947
25.64000 390.098
25.68000 403.022
25.72000 375.713
25.76000 396.384
25.80000 405.392
25.84000 400.404
25.88000 397.159
25.92000 383.918
25.96000 401.015
26.00000 397.654
26.04000 393.263
26.08000 376.478
26.12000 382.501
26.16000 374.214
26.20000 375.193
26.24000 380.785
26.28000 381.028
26.32000 387.120
26.36000 392.499
26.40000 371.852
26.44000 380.370
26.48000 381.469
26.52000 388.975
26.56000 381.103
26.60000 376.688
26.64000 387.249
26.68000 374.246
26.72000 389.159
26.76000 349.627
26.80000 373.283
26.84000 396.368
26.88000 374.529
26.92000 375.390
26.96000 384.622
27.00000 367.940
27.04000 383.606
27.08000 377.897
27.12000 378.610
27.16000 377.740
27.20000 366.205
27.24000 363.918
27.28000 383.202
27.32000 366.443
27.36000 342.833
27.40000 361.005
27.44000 378.317
27.48000 388.527
27.52000 378.211
27.56000 362.283
27.60000 369.766
27.64000 371.339
27.68000 368.352
27.72000 379.044
27.76000 364.313
27.80000 365.030
27.84000 363.817
27.88000 358.861
27.92000 360.072
27.96000 377.368
28.00000 361.682
28.04000 354.846
28.08000 363.156
28.12000 360.462
28.16000 369.752
28.20000 370.333
28.24000 366.425
28.28000 350.372
28.32000 368.143
28.36000 351.138
28.40000 360.626
28.44000 348.058
28.48000 356.751
28.52000 362.524
28.56000 369.070
28.60000 363.386
28.64000 349.558
28.68000 341.909
28.72000 352.090
28.76000 348.309
28.80000 348.983
28.84000 346.138
28.88000 332.169
28.92000 345.528
28.96000 349.464
29.00000 336.753
29.04000 340.566
29.08000 345.377
29.12000 342.661
29.16000 355.211
29.20000 340.204
29.24000 349.771
29.28000 336.577
29.32000 346.143
29.36000 352.784
29.40000 334.299
29.44000 368.406
29.48000 344.406
29.52000 357.063
29.56000 358.053
29.60000 349.452
29.64000 367.877
29.68000 337.825
29.72000 352.611
29.76000 347.163
29.80000 352.816
29.84000 349.344
29.88000 369.258
29.92000 363.729
29.96000 394.537
30.00000 371.606
30.04000 378.589
30.08000 379.065
30.12000 392.398
30.16000 370.825
30.20000 368.173
30.24000 383.261
30.28000 400.263
30.32000 358.903
30.36000 349.072
30.40000 350.999
30.44000 368.942
30.48000 366.086
30.52000 385.927
30.56000 373.769
30.60000 358.911
30.64000 393.201
30.68000 383.867
30.72000 384.615
30.76000 373.707
30.80000 428.569
30.84000 390.781
30.88000 388.365
30.92000 417.565
30.96000 428.775
31.00000 457.879
31.04000 502.186
31.08000 535.970
31.12000 583.765
31.16000 683.377
31.20000 783.852
31.24000 924.049
31.28000 990.851
31.32000 1108.291
31.36000 1199.045
31.40000 1189.423
31.44000 1197.331
31.48000 1104.387
31.52000 979.169
31.56000 845.001
31.60000 750.998
31.64000 651.738
31.68000 549.642
31.72000 490.382
31.76000 479.398
31.80000 429.291
31.84000 395.412
31.88000 386.124
31.92000 378.541
31.96000 345.811
32.00000 365.915
32.04000 352.216
32.08000 352.279
32.12000 345.162
32.16000 337.678
32.20000 348.012
32.24000 349.777
32.28000 336.814
32.32000 334.983
32.36000 334.164
32.40000 321.216
32.44000 338.188
32.48000 311.156
32.52000 327.873
32.56000 320.072
32.60000 328.983
32.64000 336.981
32.68000 300.882
32.72000 315.313
32.76000 312.185
32.80000 340.283
32.84000 385.088
32.88000 453.896
32.92000 496.001
32.96000 546.577
33.00000 521.582
33.04000 503.458
33.08000 434.062
33.12000 386.959
33.16000 337.811
33.20000 316.262
33.24000 305.657
33.28000 286.547
33.32000 304.246
33.36000 292.690
33.40000 308.287
33.44000 307.621
33.48000 311.813
33.52000 297.815
33.56000 294.409
33.60000 302.183
33.64000 298.015
33.68000 282.951
33.72000 300.228
33.76000 288.416
33.80000 293.671
33.84000 302.633
33.88000 297.760
33.92000 301.915
33.96000 299.310
34.00000 312.017
34.04000 326.711
34.08000 310.046
34.12000 308.652
34.16000 324.765
34.20000 311.498
34.24000 342.020
34.28000 325.884
34.32000 327.277
34.36000 333.573
34.40000 346.381
34.44000 342.659
34.48000 333.024
34.52000 311.457
34.56000 320.660
34.60000 307.185
34.64000 315.965
34.68000 306.100
34.72000 289.259
34.76000 303.010
34.80000 297.039
34.84000 284.538
34.88000 284.600
34.92000 284.887
34.96000 269.721
35.00000 276.284
35.04000 265.355
35.08000 255.191
35.12000 270.994
35.16000 268.458
35.20000 275.643
35.24000 276.802
35.28000 255.371
35.32000 266.656
35.36000 263.437
35.40000 253.270
35.44000 263.390
35.48000 263.778
35.52000 251.699
35.56000 263.339
35.60000 256.712
35.64000 267.172
35.68000 273.167
35.72000 262.435
35.76000 256.432
35.80000 270.263
35.84000 256.005
35.88000 257.440
35.92000 262.244
35.96000 259.489
36.00000 274.561
36.04000 264.323
36.08000 256.016
36.12000 259.120
36.16000 251.146
36.20000 256.621
36.24000 248.224
36.28000 248.793
36.32000 250.139
36.36000 249.976
36.40000 244.669
36.44000 252.543
36.48000 253.393
36.52000 253.986
36.56000 241.525
36.60000 254.026
36.64000 249.170
36.68000 254.203
36.72000 250.346
36.76000 248.758
36.80000 254.957
36.84000 271.358
36.88000 252.747
36.92000 257.500
36.96000 262.487
37.00000 269.100
37.04000 259.650
37.08000 274.660
37.12000 268.019
37.16000 266.478
37.20000 255.624
37.24000 249.626
37.28000 246.762
37.32000 251.906
37.36000 251.505
37.40000 251.912
37.44000 246.067
37.48000 260.026
37.52000 254.550
37.56000 255.517
37.60000 246.669
37.64000 265.708
37.68000 247.523
37.72000 239.644
37.76000 248.872
37.80000 250.127
37.84000 246.018
37.88000 247.183
37.92000 249.191
37.96000 252.295
38.00000 255.616
38.04000 258.424
38.08000 252.152
38.12000 244.297
38.16000 243.173
38.20000 250.429
38.24000 251.485
38.28000 272.951
38.32000 267.970
38.36000 305.862
38.40000 320.565
38.44000 344.817
38.48000 406.831
38.52000 456.950
38.56000 562.228
38.60000 626.597
38.64000 732.075
38.68000 810.716
38.72000 867.161
38.76000 842.472
38.80000 810.203
38.84000 700.419
38.88000 591.805
38.92000 504.675
38.96000 420.273
39.00000 361.888
39.04000 309.694
39.08000 288.387
39.12000 252.144
39.16000 259.191
39.20000 248.856
39.24000 244.352
39.28000 251.052
39.32000 231.600
39.36000 246.365
39.40000 231.737
39.44000 227.566
39.48000 240.127
39.52000 237.141
39.56000 228.371
39.60000 234.649
39.64000 233.272
39.68000 230.260
39.72000 230.767
39.76000 236.820
39.80000 232.541
39.84000 240.876
39.88000 211.182
39.92000 223.495
39.96000 215.555
40.00000 222.210
40.04000 223.667
40.08000 224.242
40.12000 232.871
40.16000 219.248
40.20000 220.749
40.24000 236.663
40.28000 223.173
40.32000 223.597
40.36000 236.311
40.40000 211.409
40.44000 198.320
40.48000 214.831
40.52000 215.865
40.56000 206.798
40.60000 210.329
40.64000 214.195
40.68000 224.812
40.72000 209.121
40.76000 212.239
40.80000 214.189
40.84000 209.515
40.88000 221.194
40.92000 206.291
40.96000 199.996
41.00000 198.484
41.04000 201.193
41.08000 207.567
41.12000 214.456
41.16000 212.023
41.20000 201.037
41.24000 194.723
41.28000 202.113
41.32000 205.654
41.36000 211.534
41.40000 210.113
41.44000 213.994
41.48000 212.387
41.52000 199.945
41.56000 211.773
41.60000 202.521
41.64000 208.038
41.68000 216.606
41.72000 200.832
41.76000 208.502
41.80000 197.493
41.84000 209.247
41.88000 203.176
41.92000 201.828
41.96000 206.846
42.00000 205.407
42.04000 208.182
42.08000 206.130
42.12000 196.189
42.16000 214.681
42.20000 226.945
42.24000 215.909
42.28000 214.837
42.32000 216.223
42.36000 212.371
42.40000 208.974
42.44000 210.815
42.48000 215.159
42.52000 208.072
42.56000 200.308
42.60000 202.754
42.64000 208.047
42.68000 203.626
42.72000 202.082
42.76000 204.262
42.80000 203.012
42.84000 204.449
42.88000 200.171
42.92000 211.021
42.96000 221.104
43.00000 198.990
43.04000 207.651
43.08000 195.183
43.12000 202.560
43.16000 205.357
43.20000 198.492
43.24000 193.158
43.28000 199.114
43.32000 197.767
43.36000 186.767
43.40000 189.360
43.44000 188.680
43.48000 176.236
43.52000 199.731
43.56000 169.967
43.60000 194.156
43.64000 184.975
43.68000 200.826
43.72000 186.922
43.76000 194.433
43.80000 183.186
43.84000 190.862
43.88000 202.856
43.92000 192.514
43.96000 175.384
44.00000 188.604
44.04000 195.049
44.08000 193.471
44.12000 198.328
44.16000 183.425
44.20000 194.171
44.24000 184.654
44.28000 192.172
44.32000 204.489
44.36000 199.573
44.40000 192.693
44.44000 201.487
44.48000 202.010
44.52000 198.946
44.56000 210.386
44.60000 211.872
44.64000 220.375
44.68000 214.823
44.72000 217.300
44.76000 213.771
44.80000 208.925
44.84000 222.399
44.88000 217.913
44.92000 230.706
44.96000 237.665
45.00000 233.031
45.04000 243.557
45.08000 232.013
45.12000 235.331
45.16000 235.419
45.20000 228.394
45.24000 220.282
45.28000 211.464
45.32000 201.378
45.36000 217.073
45.40000 207.402
45.44000 201.118
45.48000 215.895
45.52000 207.000
45.56000 198.588
45.60000 208.078
45.64000 205.749
45.68000 190.152
45.72000 189.480
45.76000 196.312
45.80000 185.921
45.84000 179.845
45.88000 194.118
45.92000 184.394
45.96000 177.918
46.00000 164.268
46.04000 177.687
46.08000 181.763
46.12000 184.845
46.16000 180.865
46.20000 179.649
46.24000 172.040
46.28000 174.910
46.32000 170.993
46.36000 169.189
46.40000 174.753
46.44000 183.694
46.48000 173.860
46.52000 173.243
46.56000 179.937
46.60000 169.915
46.64000 170.967
46.68000 184.833
46.72000 165.184
46.76000 173.494
46.80000 175.049
46.84000 170.866
46.88000 171.486
46.92000 176.633
46.96000 189.980
47.00000 176.086
47.04000 164.922
47.08000 164.201
47.12000 164.264
47.16000 169.958
47.20000 168.522
47.24000 166.782
47.28000 163.105
47.32000 159.591
47.36000 158.351
47.40000 180.198
47.44000 174.236
47.48000 163.536
47.52000 161.586
47.56000 165.361
47.60000 159.524
47.64000 161.582
47.68000 165.208
47.72000 154.877
47.76000 156.814
47.80000 166.319
47.84000 156.808
47.88000 151.702
47.92000 160.129
47.96000 158.189
48.00000 152.059
48.04000 152.078
48.08000 146.425
48.12000 150.759
48.16000 147.052
48.20000 159.287
48.24000 151.269
48.28000 169.147
48.32000 155.849
48.36000 155.139
48.40000 162.536
48.44000 158.735
48.48000 155.197
48.52000 156.876
48.56000 156.122
48.60000 165.475
48.64000 150.919
48.68000 159.112
48.72000 153.859
48.76000 157.079
48.80000 165.776
48.84000 151.523
48.88000 150.149
48.92000 153.358
48.96000 159.071
49.00000 156.873
49.04000 148.353
49.08000 154.408
49.12000 156.840
49.16000 157.754
49.20000 151.717
49.24000 156.321
49.28000 160.215
49.32000 154.029
49.36000 154.074
49.40000 154.665
49.44000 142.933
49.48000 153.921
49.52000 159.870
49.56000 155.821
49.60000 144.545
49.64000 144.325
49.68000 153.162
49.72000 157.510
49.76000 142.185
49.80000 147.943
49.84000 151.695
49.88000 149.026
49.92000 160.406
49.96000 150.396
50.00000 143.604
50.04000 146.777
50.08000 152.478
50.12000 158.069
50.16000 156.732
50.20000 156.274
50.24000 140.833
50.28000 157.743
50.32000 150.856
50.36000 153.252
50.40000 146.071
50.44000 166.921
50.48000 164.543
50.52000 151.456
50.56000 150.165
50.60000 163.173
50.64000 171.399
50.68000 163.886
50.72000 159.346
50.76000 159.040
50.80000 154.453
50.84000 160.908
50.88000 156.030
50.92000 154.027
50.96000 149.982
51.00000 149.926
51.04000 155.453
51.08000 147.668
51.12000 149.528
51.16000 147.080
51.20000 149.611
51.24000 154.414
51.28000 144.775
51.32000 146.509
51.36000 145.825
51.40000 145.742
51.44000 141.389
51.48000 143.565
51.52000 141.271
51.56000 135.120
51.60000 133.726
51.64000 143.289
51.68000 137.438
51.72000 145.791
51.76000 137.415
51.80000 138.059
51.84000 147.717
51.88000 150.536
51.92000 141.253
51.96000 138.641
52.00000 146.663
52.04000 130.448
52.08000 137.196
52.12000 133.310
52.16000 135.743
52.20000 139.566
52.24000 138.672
52.28000 134.213
52.32000 141.105
52.36000 135.555
52.40000 143.784
52.44000 134.135
52.48000 138.199
52.52000 147.856
52.56000 132.416
52.60000 135.487
52.64000 133.540
52.68000 134.794
52.72000 135.161
52.76000 135.214
52.80000 139.946
52.84000 140.891
52.88000 133.180
52.92000 137.620
52.96000 138.609
53.00000 141.703
53.04000 150.639
53.08000 143.373
53.12000 152.483
53.16000 137.230
53.20000 143.496
53.24000 135.170
53.28000 148.397
53.32000 149.685
53.36000 137.319
53.40000 151.357
53.44000 163.643
53.48000 152.187
53.52000 149.748
53.56000 149.217
53.60000 150.075
53.64000 153.277
53.68000 139.126
53.72000 135.519
53.76000 134.605
53.80000 144.117
53.84000 148.448
53.88000 152.960
53.92000 140.042
53.96000 141.936
54.00000 138.449
54.04000 143.689
54.08000 147.844
54.12000 140.918
54.16000 136.818
54.20000 140.331
54.24000 138.007
54.28000 143.665
54.32000 139.275
54.36000 138.256
54.40000 130.879
54.44000 132.742
54.48000 139.503
54.52000 133.218
54.56000 134.374
54.60000 141.876
54.64000 138.983
54.68000 135.041
54.72000 135.234
54.76000 125.171
54.80000 154.073
54.84000 141.719
54.88000 139.391
54.92000 140.243
54.96000 135.982
55.00000 147.023
55.04000 142.420
55.08000 147.123
55.12000 147.896
55.16000 151.920
55.20000 155.979
55.24000 150.145
55.28000 161.305
55.32000 149.847
55.36000 160.582
55.40000 174.064
55.44000 178.301
55.48000 174.571
55.52000 199.117
55.56000 211.008
55.60000 213.548
55.64000 236.009
55.68000 269.480
55.72000 311.870
55.76000 316.185
55.80000 378.195
55.84000 398.768
55.88000 446.957
55.92000 476.245
55.96000 457.674
56.00000 474.014
56.04000 437.142
56.08000 407.047
56.12000 384.453
56.16000 361.868
56.20000 314.422
56.24000 281.139
56.28000 246.016
56.32000 217.211
56.36000 192.276
56.40000 191.999
56.44000 179.302
56.48000 164.010
56.52000 150.857
56.56000 149.924
56.60000 146.598
56.64000 139.983
56.68000 138.904
56.72000 146.169
56.76000 149.806
56.80000 134.181
56.84000 137.936
56.88000 133.539
56.92000 131.210
56.96000 126.028
57.00000 131.240
57.04000 116.346
57.08000 131.278
57.12000 129.421
57.16000 133.565
57.20000 124.090
57.24000 132.343
57.28000 129.347
57.32000 126.622
57.36000 126.511
57.40000 129.237
57.44000 132.738
57.48000 131.362
57.52000 126.731
57.56000 129.273
57.60000 114.767
57.64000 121.537
57.68000 119.794
57.72000 126.399
57.76000 119.722
57.80000 123.340
57.84000 129.570
57.88000 115.916
57.92000 116.161
57.96000 124.565
58.00000 127.355
58.04000 120.186
58.08000 129.128
58.12000 121.346
58.16000 132.167
58.20000 121.494
58.24000 120.893
58.28000 121.382
58.32000 129.668
58.36000 123.196
58.40000 120.531
58.44000 126.661
58.48000 122.074
58.52000 120.909
58.56000 115.822
58.60000 124.237
58.64000 115.630
58.68000 123.136
58.72000 124.043
58.76000 130.617
58.80000 117.062
58.84000 116.355
58.88000 114.688
58.92000 126.382
58.96000 114.492
59.00000 120.618
59.04000 124.063
59.08000 117.090
59.12000 113.929
59.16000 127.363
59.20000 123.877
59.24000 111.177
59.28000 125.327
59.32000 116.645
59.36000 121.064
59.40000 113.264
59.44000 113.477
59.48000 120.033
59.52000 125.073
59.56000 113.971
59.60000 123.210
59.64000 117.246
59.68000 121.624
59.72000 123.927
59.76000 121.357
59.80000 110.601
59.84000 115.851
59.88000 113.379
59.92000 124.288
59.96000 121.595
60.00000 122.390
60.04000 121.379
60.08000 128.407
60.12000 110.939
60.16000 106.572
60.20000 123.125
60.24000 113.100
60.28000 114.553
60.32000 113.814
60.36000 119.187
60.40000 115.765
60.44000 117.264
60.48000 121.719
60.52000 116.143
60.56000 113.027
60.60000 111.967
60.64000 114.779
60.68000 113.947
60.72000 111.387
60.76000 121.935
60.80000 119.030
60.84000 112.867
60.88000 122.226
60.92000 122.520
60.96000 125.911
61.00000 124.135
61.04000 123.676
61.08000 126.024
61.12000 131.734
61.16000 120.727
61.20000 128.384
61.24000 124.563
61.28000 127.812
61.32000 128.271
61.36000 128.582
61.40000 129.505
61.44000 123.461
61.48000 143.140
61.52000 159.458
61.56000 195.041
61.60000 243.170
61.64000 276.760
61.68000 294.581
61.72000 281.424
61.76000 285.560
61.80000 225.797
61.84000 165.359
61.88000 141.580
61.92000 131.490
61.96000 122.903
62.00000 139.126
62.04000 134.120
62.08000 129.243
62.12000 128.157
62.16000 128.384
62.20000 119.558
62.24000 122.892
62.28000 133.533
62.32000 129.145
62.36000 125.504
62.40000 137.709
62.44000 135.533
62.48000 127.281
62.52000 130.836
62.56000 125.237
62.60000 119.210
62.64000 136.061
62.68000 128.810
62.72000 135.276
62.76000 130.102
62.80000 129.998
62.84000 120.699
62.88000 133.467
62.92000 127.224
62.96000 133.801
63.00000 121.741
63.04000 125.013
63.08000 130.883
63.12000 131.020
63.16000 135.229
63.20000 139.336
63.24000 137.624
63.28000 135.777
63.32000 139.607
63.36000 136.441
63.40000 128.723
63.44000 130.953
63.48000 137.489
63.52000 141.245
63.56000 129.605
63.60000 150.126
63.64000 134.318
63.68000 139.078
63.72000 139.473
63.76000 143.590
63.80000 140.639
63.84000 152.065
63.88000 144.457
63.92000 133.288
63.96000 140.789
64.00000 136.096
64.04000 149.721
64.08000 145.208
64.12000 154.644
64.16000 150.359
64.20000 153.647
64.24000 152.701
64.28000 150.081
64.32000 141.702
64.36000 153.854
64.40000 157.585
64.44000 152.500
64.48000 159.637
64.52000 152.770
64.56000 147.372
64.60000 153.858
64.64000 171.399
64.68000 170.498
64.72000 168.560
64.76000 162.316
64.80000 165.866
64.84000 180.250
64.88000 170.181
64.92000 180.554
64.96000 180.928
65.00000 184.673
65.04000 191.045
65.08000 203.497
65.12000 194.549
65.16000 213.340
65.20000 216.243
65.24000 214.674
65.28000 215.303
65.32000 237.083
65.36000 252.222
65.40000 245.954
65.44000 255.337
65.48000 278.639
65.52000 285.909
65.56000 327.381
65.60000 338.129
65.64000 414.056
65.68000 550.571
65.72000 840.829
65.76000 1307.354
65.80000 1738.444
65.84000 1932.348
65.88000 2016.296
65.92000 1879.919
65.96000 1564.443
66.00000 1052.087
66.04000 661.806
66.08000 470.161
66.12000 385.846
66.16000 359.073
66.20000 388.794
66.24000 392.483
66.28000 447.490
66.32000 514.171
66.36000 580.981
66.40000 628.497
66.44000 618.443
66.48000 599.573
66.52000 518.452
66.56000 440.112
66.60000 392.058
66.64000 355.654
66.68000 359.816
66.72000 350.747
66.76000 348.026
66.80000 352.518
66.84000 353.306
66.88000 353.984
66.92000 369.489
66.96000 356.566
67.00000 350.746
67.04000 361.705
67.08000 358.663
67.12000 375.931
67.16000 381.808
67.20000 404.666
67.24000 382.534
67.28000 408.028
67.32000 391.867
67.36000 378.081
67.40000 409.522
67.44000 406.904
67.48000 435.774
67.52000 423.040
67.56000 408.886
67.60000 426.100
67.64000 436.272
67.68000 424.787
67.72000 442.338
67.76000 450.806
67.80000 462.265
67.84000 477.691
67.88000 480.088
67.92000 499.490
67.96000 493.018
68.00000 490.781
68.04000 508.215
68.08000 526.192
68.12000 531.167
68.16000 526.106
68.20000 529.329
68.24000 555.830
68.28000 575.851
68.32000 578.276
68.36000 602.784
68.40000 628.328
68.44000 637.627
68.48000 677.183
68.52000 698.086
68.56000 737.928
68.60000 832.492
68.64000 930.356
68.68000 1102.920
68.72000 1281.448
68.76000 1441.982
68.80000 1580.009
68.84000 1791.530
68.88000 2158.522
68.92000 3194.034
68.96000 8600.212
69.00000 20256.775
69.04000 33002.941
69.08000 39851.418
69.12000 42715.359
69.16000 45506.383
69.20000 45634.609
69.24000 37117.391
69.28000 27024.432
69.32000 22209.002
69.36000 20669.805
69.40000 17509.857
69.44000 11119.248
69.48000 4891.597
69.52000 2142.928
69.56000 1327.072
69.60000 1047.570
69.64000 880.978
69.68000 795.713
69.72000 715.797
69.76000 648.748
69.80000 631.797
69.84000 586.565
69.88000 548.416
69.92000 519.558
69.96000 520.290
70.00000 493.590