File: XRD/XRD/07-10-2025 Dep 6/XY Data/BTO_Mapping_Theta2Theta_07-10-2025_001_32_-29-344_6-237.xy
20.00000 479.080
20.04000 473.922
20.08000 480.776
20.12000 470.575
20.16000 473.269
20.20000 464.450
20.24000 466.308
20.28000 474.676
20.32000 457.980
20.36000 462.741
20.40000 479.767
20.44000 469.436
20.48000 483.932
20.52000 463.590
20.56000 457.807
20.60000 464.253
20.64000 474.182
20.68000 472.047
20.72000 472.023
20.76000 469.948
20.80000 452.891
20.84000 453.862
20.88000 443.950
20.92000 449.567
20.96000 465.239
21.00000 474.576
21.04000 474.302
21.08000 454.887
21.12000 462.476
21.16000 470.677
21.20000 472.170
21.24000 469.559
21.28000 463.110
21.32000 463.997
21.36000 471.139
21.40000 458.321
21.44000 473.167
21.48000 477.619
21.52000 448.328
21.56000 448.109
21.60000 472.294
21.64000 476.912
21.68000 495.670
21.72000 504.053
21.76000 530.608
21.80000 534.383
21.84000 560.803
21.88000 574.765
21.92000 622.656
21.96000 642.660
22.00000 667.686
22.04000 657.440
22.08000 649.672
22.12000 634.541
22.16000 606.307
22.20000 586.067
22.24000 538.247
22.28000 521.492
22.32000 521.177
22.36000 506.179
22.40000 492.921
22.44000 470.674
22.48000 471.966
22.52000 456.941
22.56000 461.075
22.60000 438.902
22.64000 453.969
22.68000 441.119
22.72000 432.830
22.76000 446.783
22.80000 437.917
22.84000 433.765
22.88000 443.163
22.92000 431.105
22.96000 432.480
23.00000 439.171
23.04000 430.979
23.08000 446.486
23.12000 421.074
23.16000 428.063
23.20000 430.708
23.24000 415.997
23.28000 439.094
23.32000 420.418
23.36000 432.692
23.40000 417.471
23.44000 445.128
23.48000 420.592
23.52000 414.053
23.56000 431.601
23.60000 418.531
23.64000 414.683
23.68000 409.405
23.72000 425.956
23.76000 420.022
23.80000 415.369
23.84000 419.186
23.88000 432.238
23.92000 426.449
23.96000 417.077
24.00000 424.539
24.04000 401.231
24.08000 420.126
24.12000 413.743
24.16000 405.758
24.20000 416.781
24.24000 432.289
24.28000 405.415
24.32000 413.612
24.36000 413.636
24.40000 412.782
24.44000 409.605
24.48000 378.033
24.52000 406.955
24.56000 413.545
24.60000 409.359
24.64000 383.751
24.68000 410.756
24.72000 412.496
24.76000 409.650
24.80000 414.015
24.84000 387.186
24.88000 398.717
24.92000 389.660
24.96000 401.750
25.00000 395.928
25.04000 395.685
25.08000 401.828
25.12000 409.403
25.16000 408.534
25.20000 395.023
25.24000 391.741
25.28000 411.915
25.32000 403.681
25.36000 388.185
25.40000 382.962
25.44000 394.331
25.48000 380.927
25.52000 394.429
25.56000 389.841
25.60000 389.718
25.64000 405.058
25.68000 383.087
25.72000 390.503
25.76000 382.851
25.80000 367.846
25.84000 400.345
25.88000 387.940
25.92000 397.134
25.96000 382.950
26.00000 391.646
26.04000 395.412
26.08000 382.311
26.12000 397.319
26.16000 382.050
26.20000 401.610
26.24000 396.418
26.28000 377.501
26.32000 389.026
26.36000 412.186
26.40000 366.809
26.44000 370.391
26.48000 379.333
26.52000 371.124
26.56000 369.362
26.60000 364.551
26.64000 374.763
26.68000 385.831
26.72000 374.768
26.76000 365.550
26.80000 366.416
26.84000 357.908
26.88000 362.090
26.92000 376.838
26.96000 376.689
27.00000 378.190
27.04000 349.395
27.08000 358.126
27.12000 371.301
27.16000 368.453
27.20000 372.666
27.24000 373.924
27.28000 370.102
27.32000 376.727
27.36000 363.993
27.40000 388.582
27.44000 380.226
27.48000 362.321
27.52000 358.461
27.56000 372.500
27.60000 365.106
27.64000 360.948
27.68000 374.263
27.72000 359.266
27.76000 375.839
27.80000 355.741
27.84000 373.102
27.88000 360.909
27.92000 344.140
27.96000 340.307
28.00000 363.766
28.04000 366.240
28.08000 376.066
28.12000 366.050
28.16000 352.671
28.20000 354.935
28.24000 361.395
28.28000 367.904
28.32000 370.296
28.36000 370.716
28.40000 356.410
28.44000 362.645
28.48000 350.376
28.52000 347.567
28.56000 350.083
28.60000 357.735
28.64000 348.684
28.68000 363.265
28.72000 357.683
28.76000 349.181
28.80000 335.655
28.84000 374.009
28.88000 367.471
28.92000 340.185
28.96000 343.821
29.00000 329.616
29.04000 349.937
29.08000 343.969
29.12000 337.401
29.16000 332.862
29.20000 347.853
29.24000 354.121
29.28000 339.197
29.32000 341.492
29.36000 358.040
29.40000 352.962
29.44000 339.758
29.48000 349.548
29.52000 353.360
29.56000 349.280
29.60000 342.213
29.64000 357.018
29.68000 366.415
29.72000 373.151
29.76000 365.669
29.80000 394.189
29.84000 401.928
29.88000 400.410
29.92000 430.939
29.96000 433.238
30.00000 434.030
30.04000 437.898
30.08000 418.770
30.12000 433.110
30.16000 419.359
30.20000 415.547
30.24000 386.930
30.28000 392.966
30.32000 376.551
30.36000 396.531
30.40000 357.498
30.44000 376.887
30.48000 376.106
30.52000 378.200
30.56000 368.151
30.60000 377.717
30.64000 383.137
30.68000 398.932
30.72000 398.032
30.76000 400.890
30.80000 393.500
30.84000 405.898
30.88000 432.081
30.92000 465.162
30.96000 503.425
31.00000 604.589
31.04000 707.334
31.08000 871.213
31.12000 1146.299
31.16000 1452.178
31.20000 1797.106
31.24000 2161.255
31.28000 2437.175
31.32000 2659.285
31.36000 2776.355
31.40000 2670.088
31.44000 2425.355
31.48000 2056.993
31.52000 1717.007
31.56000 1284.366
31.60000 1022.465
31.64000 760.679
31.68000 622.180
31.72000 536.805
31.76000 457.242
31.80000 437.537
31.84000 402.154
31.88000 374.418
31.92000 369.056
31.96000 372.096
32.00000 344.499
32.04000 320.328
32.08000 336.757
32.12000 332.608
32.16000 335.024
32.20000 325.124
32.24000 314.583
32.28000 322.681
32.32000 329.814
32.36000 326.207
32.40000 327.775
32.44000 328.532
32.48000 308.701
32.52000 314.147
32.56000 312.726
32.60000 306.016
32.64000 312.931
32.68000 319.629
32.72000 315.416
32.76000 326.587
32.80000 343.122
32.84000 403.885
32.88000 481.511
32.92000 531.370
32.96000 570.602
33.00000 547.323
33.04000 519.083
33.08000 449.391
33.12000 365.651
33.16000 322.288
33.20000 312.938
33.24000 282.269
33.28000 286.174
33.32000 297.600
33.36000 297.530
33.40000 276.201
33.44000 284.880
33.48000 291.953
33.52000 274.966
33.56000 286.013
33.60000 287.219
33.64000 285.992
33.68000 297.711
33.72000 281.218
33.76000 292.580
33.80000 290.572
33.84000 288.800
33.88000 298.354
33.92000 285.329
33.96000 284.095
34.00000 298.601
34.04000 285.186
34.08000 300.126
34.12000 271.312
34.16000 283.245
34.20000 272.950
34.24000 278.692
34.28000 284.305
34.32000 285.051
34.36000 285.664
34.40000 279.928
34.44000 284.596
34.48000 274.339
34.52000 284.875
34.56000 275.481
34.60000 282.888
34.64000 280.621
34.68000 265.629
34.72000 269.411
34.76000 269.402
34.80000 281.163
34.84000 274.309
34.88000 263.411
34.92000 264.039
34.96000 255.921
35.00000 271.634
35.04000 275.257
35.08000 262.350
35.12000 265.265
35.16000 277.758
35.20000 259.232
35.24000 256.614
35.28000 267.363
35.32000 268.932
35.36000 261.474
35.40000 271.033
35.44000 261.463
35.48000 252.993
35.52000 264.370
35.56000 250.138
35.60000 271.942
35.64000 260.328
35.68000 255.366
35.72000 253.990
35.76000 251.225
35.80000 253.648
35.84000 240.600
35.88000 251.123
35.92000 260.885
35.96000 265.362
36.00000 264.301
36.04000 265.373
36.08000 252.922
36.12000 236.903
36.16000 245.833
36.20000 249.505
36.24000 265.712
36.28000 253.621
36.32000 255.441
36.36000 247.647
36.40000 259.954
36.44000 260.616
36.48000 252.928
36.52000 257.485
36.56000 256.434
36.60000 262.264
36.64000 272.217
36.68000 266.405
36.72000 248.788
36.76000 263.946
36.80000 263.779
36.84000 261.443
36.88000 253.378
36.92000 255.381
36.96000 260.244
37.00000 278.366
37.04000 257.190
37.08000 261.550
37.12000 270.429
37.16000 261.585
37.20000 242.733
37.24000 275.042
37.28000 264.556
37.32000 261.265
37.36000 253.848
37.40000 243.549
37.44000 252.846
37.48000 257.518
37.52000 238.060
37.56000 253.807
37.60000 235.524
37.64000 229.138
37.68000 239.003
37.72000 245.262
37.76000 237.775
37.80000 240.862
37.84000 244.834
37.88000 248.933
37.92000 260.933
37.96000 238.357
38.00000 245.064
38.04000 248.848
38.08000 261.835
38.12000 252.802
38.16000 262.101
38.20000 271.428
38.24000 269.807
38.28000 271.701
38.32000 295.991
38.36000 313.061
38.40000 373.440
38.44000 416.510
38.48000 447.890
38.52000 497.341
38.56000 550.315
38.60000 612.669
38.64000 635.242
38.68000 649.912
38.72000 668.015
38.76000 638.606
38.80000 581.383
38.84000 521.073
38.88000 448.345
38.92000 395.993
38.96000 338.692
39.00000 317.841
39.04000 288.081
39.08000 270.070
39.12000 259.451
39.16000 247.605
39.20000 246.939
39.24000 250.608
39.28000 232.896
39.32000 229.908
39.36000 248.909
39.40000 224.700
39.44000 233.111
39.48000 225.627
39.52000 238.422
39.56000 235.681
39.60000 228.967
39.64000 210.576
39.68000 223.889
39.72000 213.846
39.76000 214.561
39.80000 219.064
39.84000 234.526
39.88000 231.715
39.92000 212.426
39.96000 218.863
40.00000 210.195
40.04000 222.392
40.08000 213.688
40.12000 218.499
40.16000 228.698
40.20000 223.898
40.24000 226.169
40.28000 215.305
40.32000 220.094
40.36000 218.567
40.40000 217.990
40.44000 223.438
40.48000 211.189
40.52000 216.497
40.56000 214.352
40.60000 215.052
40.64000 218.088
40.68000 219.857
40.72000 215.154
40.76000 210.940
40.80000 197.574
40.84000 207.209
40.88000 214.673
40.92000 209.890
40.96000 196.115
41.00000 220.490
41.04000 212.202
41.08000 205.044
41.12000 207.356
41.16000 214.499
41.20000 203.702
41.24000 207.729
41.28000 201.777
41.32000 201.472
41.36000 204.807
41.40000 190.784
41.44000 197.281
41.48000 205.588
41.52000 199.100
41.56000 201.267
41.60000 208.132
41.64000 203.170
41.68000 201.690
41.72000 185.882
41.76000 203.969
41.80000 203.273
41.84000 203.401
41.88000 202.300
41.92000 196.205
41.96000 197.137
42.00000 202.449
42.04000 205.448
42.08000 197.313
42.12000 190.194
42.16000 195.951
42.20000 207.572
42.24000 200.352
42.28000 203.263
42.32000 203.270
42.36000 197.147
42.40000 202.988
42.44000 193.339
42.48000 193.755
42.52000 197.137
42.56000 194.959
42.60000 199.471
42.64000 187.644
42.68000 202.530
42.72000 204.193
42.76000 183.663
42.80000 200.799
42.84000 201.248
42.88000 199.507
42.92000 190.055
42.96000 206.421
43.00000 206.156
43.04000 199.017
43.08000 202.573
43.12000 198.690
43.16000 193.050
43.20000 201.923
43.24000 195.238
43.28000 200.490
43.32000 200.052
43.36000 210.779
43.40000 197.016
43.44000 189.063
43.48000 192.626
43.52000 197.159
43.56000 186.176
43.60000 188.444
43.64000 186.548
43.68000 185.099
43.72000 200.080
43.76000 195.751
43.80000 195.765
43.84000 188.038
43.88000 193.601
43.92000 193.757
43.96000 191.818
44.00000 200.035
44.04000 198.617
44.08000 182.826
44.12000 199.166
44.16000 200.543
44.20000 203.313
44.24000 200.476
44.28000 197.762
44.32000 192.665
44.36000 196.936
44.40000 213.206
44.44000 203.815
44.48000 210.906
44.52000 206.335
44.56000 220.689
44.60000 228.539
44.64000 218.648
44.68000 233.558
44.72000 241.647
44.76000 269.707
44.80000 294.274
44.84000 297.690
44.88000 339.419
44.92000 335.013
44.96000 350.623
45.00000 353.968
45.04000 352.184
45.08000 342.614
45.12000 330.012
45.16000 325.683
45.20000 307.583
45.24000 288.747
45.28000 283.116
45.32000 265.939
45.36000 258.024
45.40000 247.671
45.44000 252.401
45.48000 229.750
45.52000 229.649
45.56000 216.236
45.60000 222.098
45.64000 214.000
45.68000 206.531
45.72000 204.331
45.76000 186.318
45.80000 195.323
45.84000 192.654
45.88000 195.056
45.92000 187.190
45.96000 194.010
46.00000 187.239
46.04000 177.316
46.08000 184.422
46.12000 167.750
46.16000 185.650
46.20000 171.470
46.24000 161.153
46.28000 196.083
46.32000 188.083
46.36000 172.091
46.40000 176.224
46.44000 180.402
46.48000 172.346
46.52000 170.446
46.56000 166.958
46.60000 177.259
46.64000 158.476
46.68000 177.837
46.72000 176.767
46.76000 175.887
46.80000 169.826
46.84000 179.848
46.88000 168.078
46.92000 158.480
46.96000 167.570
47.00000 187.234
47.04000 167.235
47.08000 158.507
47.12000 154.530
47.16000 163.394
47.20000 158.308
47.24000 168.835
47.28000 169.475
47.32000 153.702
47.36000 160.231
47.40000 156.380
47.44000 154.545
47.48000 159.055
47.52000 176.070
47.56000 152.224
47.60000 148.936
47.64000 159.012
47.68000 163.116
47.72000 156.129
47.76000 159.680
47.80000 153.490
47.84000 165.050
47.88000 171.884
47.92000 153.535
47.96000 164.556
48.00000 169.168
48.04000 173.583
48.08000 160.701
48.12000 162.761
48.16000 160.918
48.20000 167.357
48.24000 160.818
48.28000 154.438
48.32000 163.560
48.36000 147.976
48.40000 148.159
48.44000 156.923
48.48000 154.851
48.52000 147.831
48.56000 166.061
48.60000 157.845
48.64000 158.730
48.68000 152.083
48.72000 161.078
48.76000 148.995
48.80000 153.483
48.84000 150.261
48.88000 150.970
48.92000 152.671
48.96000 156.242
49.00000 156.426
49.04000 154.592
49.08000 140.699
49.12000 155.961
49.16000 148.642
49.20000 145.879
49.24000 157.085
49.28000 144.116
49.32000 141.050
49.36000 151.042
49.40000 138.256
49.44000 155.294
49.48000 153.984
49.52000 144.959
49.56000 159.628
49.60000 151.329
49.64000 157.458
49.68000 149.812
49.72000 141.203
49.76000 149.197
49.80000 148.645
49.84000 138.544
49.88000 141.640
49.92000 147.861
49.96000 146.706
50.00000 157.021
50.04000 153.643
50.08000 150.103
50.12000 152.225
50.16000 162.949
50.20000 164.964
50.24000 153.400
50.28000 171.070
50.32000 170.178
50.36000 190.999
50.40000 186.785
50.44000 193.574
50.48000 199.572
50.52000 209.868
50.56000 218.809
50.60000 220.455
50.64000 227.750
50.68000 227.158
50.72000 213.275
50.76000 206.964
50.80000 208.420
50.84000 186.821
50.88000 174.941
50.92000 188.485
50.96000 176.444
51.00000 165.098
51.04000 170.185
51.08000 160.131
51.12000 160.112
51.16000 147.829
51.20000 151.758
51.24000 157.456
51.28000 157.940
51.32000 155.075
51.36000 155.062
51.40000 146.178
51.44000 153.743
51.48000 152.721
51.52000 141.521
51.56000 144.135
51.60000 137.433
51.64000 132.884
51.68000 142.623
51.72000 145.207
51.76000 138.799
51.80000 149.257
51.84000 150.955
51.88000 124.385
51.92000 143.626
51.96000 139.841
52.00000 135.889
52.04000 145.507
52.08000 131.879
52.12000 141.768
52.16000 139.713
52.20000 141.875
52.24000 139.886
52.28000 139.913
52.32000 137.176
52.36000 141.614
52.40000 132.131
52.44000 142.383
52.48000 135.853
52.52000 140.309
52.56000 134.143
52.60000 143.966
52.64000 135.551
52.68000 130.130
52.72000 124.462
52.76000 142.662
52.80000 136.074
52.84000 142.299
52.88000 140.520
52.92000 146.346
52.96000 150.428
53.00000 142.549
53.04000 139.071
53.08000 147.151
53.12000 150.731
53.16000 149.081
53.20000 150.299
53.24000 157.499
53.28000 150.156
53.32000 157.012
53.36000 142.645
53.40000 153.348
53.44000 144.682
53.48000 149.108
53.52000 154.434
53.56000 151.902
53.60000 146.155
53.64000 147.945
53.68000 147.308
53.72000 141.571
53.76000 146.923
53.80000 145.637
53.84000 136.270
53.88000 134.781
53.92000 132.890
53.96000 135.288
54.00000 131.600
54.04000 137.654
54.08000 141.142
54.12000 138.955
54.16000 139.825
54.20000 136.881
54.24000 136.415
54.28000 138.828
54.32000 131.769
54.36000 122.432
54.40000 137.394
54.44000 142.293
54.48000 137.453
54.52000 134.729
54.56000 141.222
54.60000 137.722
54.64000 134.886
54.68000 142.419
54.72000 146.401
54.76000 142.301
54.80000 127.789
54.84000 142.672
54.88000 143.862
54.92000 132.367
54.96000 143.457
55.00000 138.718
55.04000 139.484
55.08000 142.872
55.12000 149.630
55.16000 152.152
55.20000 150.784
55.24000 156.947
55.28000 159.392
55.32000 175.534
55.36000 171.657
55.40000 194.921
55.44000 211.425
55.48000 251.987
55.52000 264.739
55.56000 287.633
55.60000 317.873
55.64000 379.850
55.68000 421.471
55.72000 466.591
55.76000 482.293
55.80000 532.990
55.84000 539.074
55.88000 529.671
55.92000 532.448
55.96000 497.836
56.00000 466.455
56.04000 431.528
56.08000 387.960
56.12000 350.419
56.16000 310.233
56.20000 268.308
56.24000 250.330
56.28000 221.049
56.32000 195.666
56.36000 186.180
56.40000 180.362
56.44000 170.331
56.48000 154.753
56.52000 149.096
56.56000 161.528
56.60000 140.765
56.64000 136.893
56.68000 141.860
56.72000 136.664
56.76000 134.704
56.80000 140.527
56.84000 130.520
56.88000 125.734
56.92000 131.111
56.96000 126.139
57.00000 119.156
57.04000 133.802
57.08000 121.502
57.12000 120.693
57.16000 125.228
57.20000 113.969
57.24000 127.924
57.28000 124.272
57.32000 130.138
57.36000 130.236
57.40000 109.416
57.44000 124.028
57.48000 124.265
57.52000 119.020
57.56000 116.511
57.60000 122.117
57.64000 130.609
57.68000 114.656
57.72000 127.412
57.76000 122.891
57.80000 113.724
57.84000 121.530
57.88000 128.642
57.92000 126.950
57.96000 115.293
58.00000 121.019
58.04000 134.578
58.08000 112.280
58.12000 121.968
58.16000 117.734
58.20000 112.797
58.24000 123.276
58.28000 117.684
58.32000 122.495
58.36000 120.294
58.40000 115.607
58.44000 121.726
58.48000 118.078
58.52000 120.946
58.56000 122.258
58.60000 125.749
58.64000 119.918
58.68000 118.127
58.72000 119.638
58.76000 111.768
58.80000 123.335
58.84000 119.767
58.88000 122.565
58.92000 112.019
58.96000 102.658
59.00000 111.746
59.04000 126.545
59.08000 111.455
59.12000 112.392
59.16000 118.338
59.20000 114.746
59.24000 109.065
59.28000 116.412
59.32000 117.022
59.36000 125.182
59.40000 124.512
59.44000 122.546
59.48000 118.651
59.52000 115.385
59.56000 127.329
59.60000 114.700
59.64000 118.177
59.68000 111.170
59.72000 120.724
59.76000 119.765
59.80000 130.682
59.84000 125.396
59.88000 123.745
59.92000 126.297
59.96000 114.516
60.00000 120.353
60.04000 109.035
60.08000 112.641
60.12000 119.653
60.16000 120.730
60.20000 108.738
60.24000 114.045
60.28000 113.975
60.32000 120.102
60.36000 117.619
60.40000 115.139
60.44000 117.850
60.48000 110.027
60.52000 122.247
60.56000 115.857
60.60000 120.782
60.64000 114.174
60.68000 111.123
60.72000 108.158
60.76000 115.929
60.80000 124.580
60.84000 124.280
60.88000 118.610
60.92000 115.777
60.96000 123.790
61.00000 125.784
61.04000 118.608
61.08000 116.745
61.12000 118.180
61.16000 115.638
61.20000 116.044
61.24000 118.587
61.28000 127.983
61.32000 129.366
61.36000 116.940
61.40000 125.967
61.44000 129.811
61.48000 144.001
61.52000 178.868
61.56000 220.742
61.60000 267.132
61.64000 309.345
61.68000 314.618
61.72000 321.897
61.76000 298.678
61.80000 230.212
61.84000 172.509
61.88000 148.660
61.92000 145.022
61.96000 136.756
62.00000 129.022
62.04000 134.294
62.08000 124.701
62.12000 129.972
62.16000 126.396
62.20000 133.114
62.24000 125.477
62.28000 135.317
62.32000 128.568
62.36000 129.185
62.40000 127.599
62.44000 133.826
62.48000 130.461
62.52000 117.580
62.56000 131.303
62.60000 133.456
62.64000 136.590
62.68000 124.688
62.72000 133.133
62.76000 125.167
62.80000 130.378
62.84000 135.246
62.88000 128.043
62.92000 133.940
62.96000 134.510
63.00000 135.571
63.04000 133.570
63.08000 131.847
63.12000 128.017
63.16000 134.900
63.20000 141.836
63.24000 132.820
63.28000 128.894
63.32000 127.632
63.36000 134.560
63.40000 137.670
63.44000 136.113
63.48000 136.360
63.52000 126.969
63.56000 138.914
63.60000 144.796
63.64000 138.062
63.68000 136.321
63.72000 131.544
63.76000 153.092
63.80000 143.507
63.84000 128.786
63.88000 140.389
63.92000 143.460
63.96000 145.713
64.00000 140.924
64.04000 145.925
64.08000 145.931
64.12000 152.388
64.16000 152.883
64.20000 144.011
64.24000 141.654
64.28000 149.720
64.32000 158.565
64.36000 157.949
64.40000 156.105
64.44000 153.429
64.48000 156.341
64.52000 158.106
64.56000 162.473
64.60000 163.878
64.64000 161.792
64.68000 181.339
64.72000 174.541
64.76000 174.536
64.80000 180.044
64.84000 183.170
64.88000 196.969
64.92000 186.588
64.96000 202.254
65.00000 219.497
65.04000 222.395
65.08000 233.609
65.12000 263.914
65.16000 269.424
65.20000 286.933
65.24000 291.465
65.28000 290.325
65.32000 333.633
65.36000 342.342
65.40000 347.872
65.44000 371.123
65.48000 398.283
65.52000 413.738
65.56000 438.013
65.60000 493.831
65.64000 583.258
65.68000 795.681
65.72000 1206.419
65.76000 1789.042
65.80000 2212.618
65.84000 2385.507
65.88000 2357.891
65.92000 2189.947
65.96000 1736.463
66.00000 1151.301
66.04000 738.080
66.08000 532.256
66.12000 425.341
66.16000 405.613
66.20000 403.165
66.24000 435.193
66.28000 525.410
66.32000 627.685
66.36000 704.647
66.40000 702.031
66.44000 723.650
66.48000 658.993
66.52000 574.218
66.56000 473.538
66.60000 435.448
66.64000 402.572
66.68000 399.895
66.72000 380.868
66.76000 370.828
66.80000 382.019
66.84000 399.146
66.88000 384.645
66.92000 387.516
66.96000 382.568
67.00000 402.482
67.04000 398.794
67.08000 414.046
67.12000 402.526
67.16000 407.761
67.20000 423.060
67.24000 403.998
67.28000 419.986
67.32000 421.592
67.36000 452.492
67.40000 436.218
67.44000 438.187
67.48000 467.745
67.52000 451.428
67.56000 444.093
67.60000 458.309
67.64000 472.148
67.68000 472.190
67.72000 472.832
67.76000 495.564
67.80000 473.538
67.84000 502.086
67.88000 502.120
67.92000 501.843
67.96000 530.990
68.00000 523.183
68.04000 550.733
68.08000 577.025
68.12000 565.912
68.16000 568.104
68.20000 569.466
68.24000 592.896
68.28000 621.911
68.32000 616.097
68.36000 633.933
68.40000 660.504
68.44000 694.008
68.48000 704.028
68.52000 766.037
68.56000 834.093
68.60000 942.938
68.64000 1108.505
68.68000 1298.364
68.72000 1478.793
68.76000 1716.651
68.80000 1996.841
68.84000 2339.111
68.88000 3076.266
68.92000 4995.331
68.96000 13507.661
69.00000 28590.002
69.04000 42890.559
69.08000 49827.719
69.12000 52943.906
69.16000 55998.266
69.20000 53493.652
69.24000 42356.121
69.28000 31994.650
69.32000 26636.625
69.36000 24519.844
69.40000 19484.723
69.44000 11810.549
69.48000 5314.678
69.52000 2369.740
69.56000 1490.095
69.60000 1135.334
69.64000 988.049
69.68000 878.913
69.72000 793.610
69.76000 714.117
69.80000 648.779
69.84000 621.060
69.88000 598.402
69.92000 562.660
69.96000 526.533
70.00000 518.086