File: XRD/XRD/07-10-2025 Dep 6/XY Data/BTO_Mapping_Theta2Theta_07-10-2025_001_59_18-271_-8-135.xy
20.00000 464.882
20.04000 456.352
20.08000 470.808
20.12000 441.861
20.16000 485.438
20.20000 481.220
20.24000 488.593
20.28000 478.793
20.32000 466.989
20.36000 451.947
20.40000 463.603
20.44000 462.054
20.48000 452.544
20.52000 468.025
20.56000 464.632
20.60000 467.104
20.64000 474.471
20.68000 474.901
20.72000 481.888
20.76000 455.921
20.80000 463.508
20.84000 485.390
20.88000 447.781
20.92000 445.503
20.96000 441.979
21.00000 440.739
21.04000 482.000
21.08000 461.921
21.12000 463.319
21.16000 459.409
21.20000 464.155
21.24000 464.860
21.28000 463.806
21.32000 449.441
21.36000 479.099
21.40000 455.791
21.44000 464.079
21.48000 468.608
21.52000 468.910
21.56000 475.505
21.60000 463.873
21.64000 479.181
21.68000 461.162
21.72000 466.660
21.76000 451.863
21.80000 475.682
21.84000 487.587
21.88000 485.425
21.92000 507.145
21.96000 497.856
22.00000 480.638
22.04000 512.104
22.08000 507.764
22.12000 508.515
22.16000 507.758
22.20000 501.931
22.24000 476.050
22.28000 490.304
22.32000 476.517
22.36000 466.034
22.40000 472.373
22.44000 458.871
22.48000 447.299
22.52000 465.327
22.56000 444.292
22.60000 448.768
22.64000 438.136
22.68000 448.455
22.72000 449.954
22.76000 454.587
22.80000 423.853
22.84000 451.444
22.88000 447.250
22.92000 431.407
22.96000 424.387
23.00000 430.581
23.04000 454.803
23.08000 437.165
23.12000 432.712
23.16000 444.342
23.20000 445.157
23.24000 422.897
23.28000 430.575
23.32000 433.327
23.36000 414.287
23.40000 437.466
23.44000 470.357
23.48000 427.294
23.52000 443.472
23.56000 464.641
23.60000 455.185
23.64000 444.608
23.68000 468.300
23.72000 452.969
23.76000 480.069
23.80000 480.029
23.84000 504.440
23.88000 496.608
23.92000 530.804
23.96000 503.488
24.00000 507.472
24.04000 510.084
24.08000 500.962
24.12000 478.256
24.16000 502.032
24.20000 467.607
24.24000 471.419
24.28000 449.821
24.32000 456.043
24.36000 440.747
24.40000 436.281
24.44000 420.868
24.48000 436.565
24.52000 410.864
24.56000 410.254
24.60000 427.253
24.64000 421.953
24.68000 413.051
24.72000 402.863
24.76000 430.544
24.80000 405.860
24.84000 417.273
24.88000 424.814
24.92000 397.937
24.96000 405.209
25.00000 399.705
25.04000 389.371
25.08000 403.773
25.12000 405.670
25.16000 395.503
25.20000 393.410
25.24000 400.044
25.28000 387.855
25.32000 408.212
25.36000 396.622
25.40000 405.916
25.44000 397.002
25.48000 394.164
25.52000 389.158
25.56000 401.698
25.60000 402.697
25.64000 401.112
25.68000 380.803
25.72000 378.478
25.76000 388.961
25.80000 383.282
25.84000 390.156
25.88000 381.820
25.92000 381.403
25.96000 384.215
26.00000 392.215
26.04000 376.474
26.08000 386.538
26.12000 380.421
26.16000 395.705
26.20000 380.938
26.24000 388.176
26.28000 381.185
26.32000 383.466
26.36000 370.048
26.40000 372.213
26.44000 377.878
26.48000 386.705
26.52000 393.457
26.56000 385.706
26.60000 383.536
26.64000 383.480
26.68000 384.579
26.72000 373.916
26.76000 368.348
26.80000 374.195
26.84000 380.630
26.88000 391.608
26.92000 380.217
26.96000 371.140
27.00000 379.145
27.04000 370.157
27.08000 366.513
27.12000 356.947
27.16000 369.419
27.20000 368.196
27.24000 369.439
27.28000 355.169
27.32000 377.940
27.36000 371.729
27.40000 361.996
27.44000 374.270
27.48000 372.667
27.52000 382.549
27.56000 384.889
27.60000 379.406
27.64000 366.008
27.68000 381.935
27.72000 380.152
27.76000 372.862
27.80000 362.901
27.84000 359.988
27.88000 360.777
27.92000 366.718
27.96000 356.576
28.00000 365.695
28.04000 369.566
28.08000 363.743
28.12000 368.279
28.16000 367.112
28.20000 372.215
28.24000 362.595
28.28000 360.007
28.32000 344.382
28.36000 359.323
28.40000 352.639
28.44000 364.432
28.48000 359.044
28.52000 360.759
28.56000 357.106
28.60000 352.717
28.64000 345.046
28.68000 358.954
28.72000 361.409
28.76000 359.633
28.80000 362.932
28.84000 345.657
28.88000 364.637
28.92000 366.061
28.96000 353.243
29.00000 358.539
29.04000 355.883
29.08000 364.372
29.12000 355.632
29.16000 363.945
29.20000 348.325
29.24000 330.455
29.28000 337.384
29.32000 339.383
29.36000 343.461
29.40000 364.533
29.44000 355.349
29.48000 347.639
29.52000 354.998
29.56000 351.645
29.60000 343.269
29.64000 339.114
29.68000 360.637
29.72000 356.046
29.76000 383.041
29.80000 362.174
29.84000 368.886
29.88000 356.771
29.92000 363.756
29.96000 394.445
30.00000 361.253
30.04000 367.930
30.08000 364.797
30.12000 374.041
30.16000 378.615
30.20000 369.379
30.24000 373.070
30.28000 362.651
30.32000 374.378
30.36000 357.282
30.40000 365.541
30.44000 368.350
30.48000 380.338
30.52000 368.587
30.56000 379.982
30.60000 353.624
30.64000 368.601
30.68000 380.732
30.72000 372.341
30.76000 389.412
30.80000 380.473
30.84000 391.907
30.88000 398.561
30.92000 413.692
30.96000 442.715
31.00000 462.297
31.04000 501.867
31.08000 525.392
31.12000 593.626
31.16000 678.694
31.20000 763.743
31.24000 846.353
31.28000 937.557
31.32000 1037.973
31.36000 1063.375
31.40000 1065.796
31.44000 1011.115
31.48000 953.300
31.52000 852.265
31.56000 757.427
31.60000 660.736
31.64000 596.255
31.68000 538.498
31.72000 486.252
31.76000 438.758
31.80000 432.217
31.84000 413.631
31.88000 375.285
31.92000 373.208
31.96000 389.727
32.00000 365.207
32.04000 375.859
32.08000 355.504
32.12000 365.433
32.16000 353.107
32.20000 355.677
32.24000 347.937
32.28000 333.611
32.32000 327.073
32.36000 323.861
32.40000 330.899
32.44000 315.757
32.48000 326.881
32.52000 326.203
32.56000 307.605
32.60000 328.217
32.64000 339.374
32.68000 329.157
32.72000 306.123
32.76000 325.977
32.80000 345.777
32.84000 396.360
32.88000 452.628
32.92000 505.943
32.96000 556.080
33.00000 528.759
33.04000 500.625
33.08000 440.482
33.12000 390.717
33.16000 333.962
33.20000 296.803
33.24000 311.065
33.28000 302.279
33.32000 296.743
33.36000 299.034
33.40000 276.174
33.44000 285.049
33.48000 293.781
33.52000 290.795
33.56000 300.371
33.60000 274.347
33.64000 283.494
33.68000 300.574
33.72000 294.071
33.76000 303.939
33.80000 306.813
33.84000 297.278
33.88000 293.178
33.92000 305.750
33.96000 307.490
34.00000 301.428
34.04000 303.678
34.08000 295.752
34.12000 322.591
34.16000 319.932
34.20000 328.232
34.24000 330.012
34.28000 331.225
34.32000 330.292
34.36000 311.309
34.40000 332.931
34.44000 311.878
34.48000 306.988
34.52000 314.164
34.56000 319.342
34.60000 298.491
34.64000 308.697
34.68000 285.231
34.72000 296.746
34.76000 282.378
34.80000 291.710
34.84000 283.167
34.88000 273.034
34.92000 265.312
34.96000 271.952
35.00000 279.208
35.04000 277.134
35.08000 276.768
35.12000 285.555
35.16000 279.080
35.20000 272.776
35.24000 266.176
35.28000 278.704
35.32000 277.029
35.36000 279.093
35.40000 254.645
35.44000 257.481
35.48000 258.278
35.52000 260.162
35.56000 265.668
35.60000 265.968
35.64000 275.918
35.68000 262.875
35.72000 250.289
35.76000 247.525
35.80000 269.988
35.84000 256.338
35.88000 262.054
35.92000 250.814
35.96000 257.201
36.00000 263.331
36.04000 260.345
36.08000 255.081
36.12000 270.144
36.16000 259.544
36.20000 240.845
36.24000 262.112
36.28000 257.196
36.32000 263.236
36.36000 262.444
36.40000 251.800
36.44000 251.175
36.48000 252.063
36.52000 255.723
36.56000 246.443
36.60000 248.748
36.64000 248.235
36.68000 263.694
36.72000 260.141
36.76000 266.444
36.80000 262.628
36.84000 267.577
36.88000 270.665
36.92000 278.029
36.96000 265.685
37.00000 261.771
37.04000 262.512
37.08000 258.069
37.12000 263.302
37.16000 257.875
37.20000 253.656
37.24000 249.923
37.28000 258.603
37.32000 256.309
37.36000 261.456
37.40000 253.115
37.44000 250.810
37.48000 245.256
37.52000 244.976
37.56000 268.952
37.60000 251.606
37.64000 265.627
37.68000 246.308
37.72000 257.088
37.76000 260.428
37.80000 264.556
37.84000 251.794
37.88000 257.764
37.92000 245.741
37.96000 274.822
38.00000 262.036
38.04000 257.170
38.08000 246.869
38.12000 248.255
38.16000 260.822
38.20000 251.913
38.24000 253.869
38.28000 282.290
38.32000 299.985
38.36000 296.877
38.40000 322.700
38.44000 353.110
38.48000 393.495
38.52000 452.247
38.56000 537.728
38.60000 600.613
38.64000 680.364
38.68000 733.162
38.72000 761.577
38.76000 714.837
38.80000 671.104
38.84000 600.258
38.88000 513.467
38.92000 448.396
38.96000 382.195
39.00000 318.837
39.04000 307.665
39.08000 267.537
39.12000 266.618
39.16000 246.137
39.20000 247.921
39.24000 250.032
39.28000 240.298
39.32000 241.990
39.36000 251.697
39.40000 240.977
39.44000 231.236
39.48000 240.120
39.52000 231.764
39.56000 224.813
39.60000 232.219
39.64000 228.808
39.68000 237.509
39.72000 222.674
39.76000 234.089
39.80000 228.302
39.84000 222.511
39.88000 223.772
39.92000 229.722
39.96000 242.594
40.00000 231.791
40.04000 221.748
40.08000 226.776
40.12000 233.830
40.16000 222.243
40.20000 226.456
40.24000 235.283
40.28000 220.879
40.32000 228.609
40.36000 211.234
40.40000 217.210
40.44000 215.689
40.48000 215.815
40.52000 224.519
40.56000 228.419
40.60000 196.738
40.64000 195.163
40.68000 200.378
40.72000 219.061
40.76000 219.398
40.80000 212.380
40.84000 209.014
40.88000 206.839
40.92000 210.954
40.96000 228.600
41.00000 215.238
41.04000 209.348
41.08000 206.625
41.12000 209.579
41.16000 214.208
41.20000 204.278
41.24000 203.161
41.28000 212.102
41.32000 209.427
41.36000 218.036
41.40000 222.880
41.44000 204.889
41.48000 206.132
41.52000 211.801
41.56000 211.370
41.60000 202.214
41.64000 208.529
41.68000 219.523
41.72000 203.463
41.76000 214.835
41.80000 216.242
41.84000 204.098
41.88000 219.150
41.92000 211.123
41.96000 204.509
42.00000 210.736
42.04000 222.366
42.08000 205.329
42.12000 211.616
42.16000 220.948
42.20000 217.432
42.24000 204.164
42.28000 219.397
42.32000 221.829
42.36000 223.841
42.40000 218.488
42.44000 215.313
42.48000 217.606
42.52000 208.330
42.56000 205.161
42.60000 206.489
42.64000 192.430
42.68000 203.778
42.72000 206.980
42.76000 195.999
42.80000 208.055
42.84000 214.852
42.88000 202.746
42.92000 216.542
42.96000 198.740
43.00000 199.421
43.04000 190.015
43.08000 209.379
43.12000 194.701
43.16000 200.093
43.20000 186.508
43.24000 201.267
43.28000 193.754
43.32000 195.746
43.36000 197.838
43.40000 191.087
43.44000 189.189
43.48000 197.859
43.52000 190.115
43.56000 180.896
43.60000 203.446
43.64000 202.420
43.68000 190.324
43.72000 197.103
43.76000 189.013
43.80000 203.407
43.84000 191.546
43.88000 199.420
43.92000 201.887
43.96000 201.913
44.00000 197.020
44.04000 192.297
44.08000 197.038
44.12000 200.052
44.16000 204.365
44.20000 187.209
44.24000 209.779
44.28000 199.592
44.32000 199.609
44.36000 185.870
44.40000 204.828
44.44000 203.402
44.48000 203.655
44.52000 211.603
44.56000 208.123
44.60000 205.028
44.64000 220.284
44.68000 224.776
44.72000 215.691
44.76000 221.912
44.80000 234.274
44.84000 222.748
44.88000 218.191
44.92000 234.428
44.96000 222.121
45.00000 225.200
45.04000 236.990
45.08000 219.193
45.12000 226.717
45.16000 224.499
45.20000 218.380
45.24000 219.340
45.28000 227.839
45.32000 219.745
45.36000 213.556
45.40000 196.955
45.44000 205.351
45.48000 200.017
45.52000 206.822
45.56000 204.826
45.60000 198.487
45.64000 206.538
45.68000 198.095
45.72000 197.533
45.76000 194.958
45.80000 186.417
45.84000 173.589
45.88000 179.860
45.92000 184.001
45.96000 186.738
46.00000 172.477
46.04000 177.571
46.08000 173.014
46.12000 174.610
46.16000 172.882
46.20000 170.447
46.24000 181.308
46.28000 180.334
46.32000 178.170
46.36000 171.282
46.40000 178.097
46.44000 182.504
46.48000 174.436
46.52000 182.016
46.56000 181.455
46.60000 178.786
46.64000 179.993
46.68000 175.979
46.72000 174.699
46.76000 171.221
46.80000 169.894
46.84000 179.058
46.88000 172.753
46.92000 166.629
46.96000 169.571
47.00000 161.046
47.04000 166.173
47.08000 166.089
47.12000 163.598
47.16000 164.635
47.20000 169.448
47.24000 160.964
47.28000 156.908
47.32000 172.402
47.36000 168.795
47.40000 163.388
47.44000 162.741
47.48000 161.431
47.52000 169.430
47.56000 156.729
47.60000 164.377
47.64000 164.068
47.68000 159.717
47.72000 156.337
47.76000 167.087
47.80000 167.563
47.84000 163.417
47.88000 165.631
47.92000 168.799
47.96000 154.331
48.00000 162.884
48.04000 162.445
48.08000 157.704
48.12000 152.670
48.16000 161.932
48.20000 157.114
48.24000 155.056
48.28000 152.114
48.32000 156.511
48.36000 171.663
48.40000 162.228
48.44000 156.529
48.48000 153.806
48.52000 154.065
48.56000 147.941
48.60000 156.678
48.64000 163.040
48.68000 163.225
48.72000 160.013
48.76000 162.897
48.80000 160.854
48.84000 156.055
48.88000 148.466
48.92000 150.554
48.96000 155.488
49.00000 153.725
49.04000 147.698
49.08000 162.888
49.12000 154.966
49.16000 154.344
49.20000 155.545
49.24000 163.841
49.28000 166.770
49.32000 146.864
49.36000 148.435
49.40000 148.946
49.44000 153.636
49.48000 159.664
49.52000 150.772
49.56000 155.750
49.60000 154.263
49.64000 144.934
49.68000 154.164
49.72000 144.858
49.76000 155.583
49.80000 151.354
49.84000 153.185
49.88000 144.046
49.92000 153.895
49.96000 152.603
50.00000 157.155
50.04000 163.115
50.08000 161.731
50.12000 151.027
50.16000 158.146
50.20000 158.162
50.24000 157.987
50.28000 151.007
50.32000 148.337
50.36000 162.601
50.40000 151.525
50.44000 152.956
50.48000 156.174
50.52000 166.390
50.56000 168.705
50.60000 151.885
50.64000 173.859
50.68000 165.844
50.72000 171.069
50.76000 168.645
50.80000 157.681
50.84000 158.775
50.88000 160.460
50.92000 144.769
50.96000 157.338
51.00000 154.264
51.04000 156.909
51.08000 146.281
51.12000 151.261
51.16000 145.174
51.20000 144.267
51.24000 139.196
51.28000 145.724
51.32000 139.170
51.36000 143.107
51.40000 148.513
51.44000 144.946
51.48000 129.121
51.52000 142.818
51.56000 157.333
51.60000 138.008
51.64000 134.571
51.68000 139.136
51.72000 142.975
51.76000 138.505
51.80000 149.918
51.84000 151.079
51.88000 146.576
51.92000 137.399
51.96000 142.792
52.00000 137.847
52.04000 137.358
52.08000 158.265
52.12000 138.500
52.16000 138.511
52.20000 155.034
52.24000 135.687
52.28000 133.809
52.32000 143.729
52.36000 143.087
52.40000 145.325
52.44000 140.105
52.48000 134.744
52.52000 134.508
52.56000 132.256
52.60000 138.382
52.64000 136.490
52.68000 153.046
52.72000 133.882
52.76000 136.670
52.80000 138.280
52.84000 133.896
52.88000 144.759
52.92000 144.743
52.96000 135.891
53.00000 138.191
53.04000 151.249
53.08000 139.923
53.12000 129.994
53.16000 148.357
53.20000 146.030
53.24000 137.622
53.28000 141.016
53.32000 141.081
53.36000 147.613
53.40000 140.213
53.44000 149.185
53.48000 150.626
53.52000 147.608
53.56000 159.242
53.60000 139.212
53.64000 138.898
53.68000 146.915
53.72000 144.506
53.76000 140.176
53.80000 153.039
53.84000 133.301
53.88000 139.439
53.92000 140.391
53.96000 141.734
54.00000 133.152
54.04000 132.650
54.08000 143.480
54.12000 135.158
54.16000 140.233
54.20000 139.704
54.24000 141.787
54.28000 133.149
54.32000 150.049
54.36000 138.345
54.40000 141.598
54.44000 140.646
54.48000 139.571
54.52000 138.306
54.56000 132.945
54.60000 145.622
54.64000 138.846
54.68000 151.157
54.72000 142.368
54.76000 141.963
54.80000 131.695
54.84000 135.686
54.88000 143.397
54.92000 134.390
54.96000 137.426
55.00000 144.822
55.04000 142.401
55.08000 155.350
55.12000 139.144
55.16000 154.130
55.20000 154.337
55.24000 151.852
55.28000 150.157
55.32000 161.459
55.36000 163.860
55.40000 165.652
55.44000 172.108
55.48000 179.992
55.52000 186.615
55.56000 193.434
55.60000 207.389
55.64000 236.818
55.68000 241.610
55.72000 263.110
55.76000 292.504
55.80000 313.411
55.84000 334.048
55.88000 351.611
55.92000 367.604
55.96000 365.329
56.00000 366.986
56.04000 344.900
56.08000 325.786
56.12000 306.572
56.16000 290.358
56.20000 268.411
56.24000 244.590
56.28000 215.547
56.32000 212.755
56.36000 197.847
56.40000 187.014
56.44000 159.994
56.48000 160.823
56.52000 152.390
56.56000 153.614
56.60000 152.395
56.64000 140.617
56.68000 142.957
56.72000 147.005
56.76000 142.976
56.80000 133.884
56.84000 135.932
56.88000 113.820
56.92000 133.840
56.96000 134.933
57.00000 129.695
57.04000 131.473
57.08000 128.024
57.12000 134.819
57.16000 118.140
57.20000 129.482
57.24000 126.800
57.28000 125.847
57.32000 133.562
57.36000 124.807
57.40000 125.868
57.44000 127.581
57.48000 132.524
57.52000 121.799
57.56000 130.244
57.60000 130.981
57.64000 124.868
57.68000 125.412
57.72000 122.143
57.76000 122.838
57.80000 125.609
57.84000 118.365
57.88000 126.020
57.92000 117.918
57.96000 128.313
58.00000 123.665
58.04000 122.608
58.08000 118.430
58.12000 115.938
58.16000 119.674
58.20000 121.527
58.24000 123.128
58.28000 122.110
58.32000 125.273
58.36000 119.638
58.40000 120.044
58.44000 119.374
58.48000 119.362
58.52000 117.671
58.56000 118.761
58.60000 122.104
58.64000 122.900
58.68000 126.331
58.72000 128.815
58.76000 120.863
58.80000 126.441
58.84000 116.932
58.88000 117.785
58.92000 111.276
58.96000 123.460
59.00000 116.657
59.04000 116.163
59.08000 122.467
59.12000 112.357
59.16000 114.259
59.20000 117.244
59.24000 132.531
59.28000 122.592
59.32000 118.961
59.36000 125.628
59.40000 117.486
59.44000 114.221
59.48000 125.854
59.52000 130.709
59.56000 119.576
59.60000 106.991
59.64000 117.196
59.68000 118.199
59.72000 115.825
59.76000 118.240
59.80000 123.101
59.84000 122.694
59.88000 111.174
59.92000 119.908
59.96000 103.061
60.00000 120.835
60.04000 114.046
60.08000 110.836
60.12000 120.639
60.16000 118.785
60.20000 127.604
60.24000 120.210
60.28000 116.361
60.32000 114.866
60.36000 123.163
60.40000 120.186
60.44000 115.359
60.48000 125.518
60.52000 111.079
60.56000 132.981
60.60000 116.770
60.64000 116.460
60.68000 114.876
60.72000 110.887
60.76000 121.112
60.80000 127.704
60.84000 118.068
60.88000 118.597
60.92000 132.621
60.96000 119.277
61.00000 112.050
61.04000 113.321
61.08000 117.433
61.12000 117.090
61.16000 126.458
61.20000 140.482
61.24000 129.520
61.28000 125.888
61.32000 121.339
61.36000 114.661
61.40000 127.810
61.44000 128.985
61.48000 134.526
61.52000 152.500
61.56000 198.659
61.60000 237.696
61.64000 277.496
61.68000 303.700
61.72000 295.239
61.76000 281.123
61.80000 232.468
61.84000 175.422
61.88000 141.662
61.92000 126.782
61.96000 126.588
62.00000 135.159
62.04000 131.571
62.08000 121.829
62.12000 129.761
62.16000 139.279
62.20000 125.159
62.24000 131.855
62.28000 125.349
62.32000 121.449
62.36000 128.595
62.40000 130.711
62.44000 120.663
62.48000 126.074
62.52000 127.738
62.56000 134.964
62.60000 131.582
62.64000 132.716
62.68000 140.675
62.72000 127.814
62.76000 132.925
62.80000 127.999
62.84000 131.694
62.88000 134.797
62.92000 130.682
62.96000 129.970
63.00000 132.557
63.04000 132.224
63.08000 130.418
63.12000 135.037
63.16000 133.081
63.20000 147.130
63.24000 142.408
63.28000 135.424
63.32000 134.388
63.36000 131.660
63.40000 139.377
63.44000 133.865
63.48000 134.308
63.52000 138.600
63.56000 135.973
63.60000 136.504
63.64000 138.364
63.68000 148.828
63.72000 135.180
63.76000 144.741
63.80000 139.569
63.84000 152.392
63.88000 139.267
63.92000 130.997
63.96000 144.805
64.00000 149.963
64.04000 151.822
64.08000 148.345
64.12000 135.830
64.16000 151.854
64.20000 145.973
64.24000 138.427
64.28000 152.508
64.32000 143.688
64.36000 150.850
64.40000 158.204
64.44000 153.072
64.48000 158.276
64.52000 172.939
64.56000 163.648
64.60000 166.947
64.64000 168.005
64.68000 159.809
64.72000 169.609
64.76000 182.538
64.80000 171.264
64.84000 179.783
64.88000 181.947
64.92000 180.423
64.96000 183.999
65.00000 184.866
65.04000 188.805
65.08000 190.173
65.12000 212.023
65.16000 203.191
65.20000 200.112
65.24000 221.481
65.28000 222.746
65.32000 228.066
65.36000 255.146
65.40000 245.656
65.44000 266.112
65.48000 270.232
65.52000 294.966
65.56000 326.006
65.60000 354.591
65.64000 407.982
65.68000 537.151
65.72000 869.127
65.76000 1326.126
65.80000 1715.757
65.84000 1975.177
65.88000 1995.789
65.92000 1896.724
65.96000 1589.899
66.00000 1077.895
66.04000 665.151
66.08000 483.831
66.12000 415.289
66.16000 375.262
66.20000 389.569
66.24000 405.119
66.28000 444.623
66.32000 527.373
66.36000 603.805
66.40000 635.412
66.44000 614.262
66.48000 623.331
66.52000 549.472
66.56000 444.304
66.60000 400.186
66.64000 372.986
66.68000 340.586
66.72000 356.078
66.76000 370.609
66.80000 377.455
66.84000 351.734
66.88000 367.051
66.92000 364.174
66.96000 354.420
67.00000 371.703
67.04000 369.088
67.08000 380.063
67.12000 372.974
67.16000 391.000
67.20000 387.601
67.24000 394.232
67.28000 404.248
67.32000 400.604
67.36000 410.220
67.40000 433.737
67.44000 403.663
67.48000 419.885
67.52000 411.394
67.56000 420.467
67.60000 439.239
67.64000 450.050
67.68000 459.601
67.72000 446.719
67.76000 451.739
67.80000 460.018
67.84000 457.638
67.88000 486.139
67.92000 471.778
67.96000 464.464
68.00000 489.062
68.04000 502.694
68.08000 505.470
68.12000 524.743
68.16000 552.600
68.20000 583.157
68.24000 573.569
68.28000 569.498
68.32000 595.515
68.36000 594.094
68.40000 619.407
68.44000 653.276
68.48000 674.783
68.52000 701.026
68.56000 756.377
68.60000 835.186
68.64000 963.480
68.68000 1139.113
68.72000 1280.966
68.76000 1447.066
68.80000 1597.358
68.84000 1847.150
68.88000 2207.133
68.92000 3234.729
68.96000 8619.861
69.00000 20307.146
69.04000 33118.602
69.08000 40361.184
69.12000 43011.914
69.16000 46006.176
69.20000 46505.695
69.24000 37977.488
69.28000 27640.953
69.32000 22643.887
69.36000 20873.549
69.40000 17866.514
69.44000 11471.801
69.48000 5054.328
69.52000 2259.725
69.56000 1340.856
69.60000 1063.404
69.64000 921.043
69.68000 808.823
69.72000 739.652
69.76000 682.436
69.80000 638.941
69.84000 602.715
69.88000 549.811
69.92000 536.199
69.96000 517.623
70.00000 503.492