File: XRD/XRD/07-10-2025 Dep 6/XY Data/BTO_Mapping_Theta2Theta_07-10-2025_001_55_13-383_-14-863.xy
20.00000 478.870
20.04000 483.479
20.08000 490.074
20.12000 466.049
20.16000 448.266
20.20000 467.173
20.24000 468.372
20.28000 476.222
20.32000 471.880
20.36000 469.408
20.40000 478.557
20.44000 486.925
20.48000 460.950
20.52000 476.874
20.56000 466.694
20.60000 453.814
20.64000 463.247
20.68000 453.587
20.72000 465.982
20.76000 456.908
20.80000 471.146
20.84000 477.332
20.88000 473.080
20.92000 444.575
20.96000 482.437
21.00000 473.132
21.04000 437.527
21.08000 457.501
21.12000 455.212
21.16000 479.577
21.20000 459.604
21.24000 469.286
21.28000 449.678
21.32000 449.129
21.36000 465.565
21.40000 472.033
21.44000 459.640
21.48000 467.014
21.52000 448.971
21.56000 470.480
21.60000 465.315
21.64000 457.840
21.68000 490.137
21.72000 465.504
21.76000 485.833
21.80000 477.434
21.84000 468.224
21.88000 481.337
21.92000 488.525
21.96000 490.584
22.00000 505.416
22.04000 475.539
22.08000 541.375
22.12000 508.053
22.16000 512.102
22.20000 495.146
22.24000 494.624
22.28000 500.242
22.32000 498.212
22.36000 476.223
22.40000 469.354
22.44000 455.196
22.48000 455.995
22.52000 453.330
22.56000 443.436
22.60000 453.257
22.64000 439.800
22.68000 452.788
22.72000 453.320
22.76000 441.477
22.80000 443.862
22.84000 424.211
22.88000 448.252
22.92000 433.966
22.96000 437.519
23.00000 445.848
23.04000 443.520
23.08000 419.609
23.12000 423.635
23.16000 434.178
23.20000 444.663
23.24000 437.258
23.28000 429.715
23.32000 434.345
23.36000 419.807
23.40000 434.474
23.44000 434.578
23.48000 447.249
23.52000 443.237
23.56000 446.122
23.60000 450.283
23.64000 447.701
23.68000 451.476
23.72000 469.290
23.76000 469.272
23.80000 494.575
23.84000 496.794
23.88000 510.715
23.92000 511.398
23.96000 549.917
24.00000 516.881
24.04000 527.129
24.08000 523.675
24.12000 497.589
24.16000 485.508
24.20000 473.107
24.24000 449.555
24.28000 469.462
24.32000 430.903
24.36000 460.136
24.40000 442.709
24.44000 436.698
24.48000 417.314
24.52000 428.046
24.56000 432.765
24.60000 392.924
24.64000 403.059
24.68000 412.171
24.72000 413.173
24.76000 399.852
24.80000 416.061
24.84000 390.760
24.88000 391.170
24.92000 427.801
24.96000 414.949
25.00000 410.398
25.04000 403.471
25.08000 409.403
25.12000 394.625
25.16000 398.605
25.20000 383.624
25.24000 399.618
25.28000 391.492
25.32000 394.956
25.36000 406.946
25.40000 419.661
25.44000 390.472
25.48000 387.378
25.52000 390.642
25.56000 398.251
25.60000 394.504
25.64000 386.529
25.68000 392.436
25.72000 385.896
25.76000 405.647
25.80000 387.784
25.84000 377.738
25.88000 390.614
25.92000 388.448
25.96000 390.573
26.00000 389.433
26.04000 381.234
26.08000 387.985
26.12000 404.198
26.16000 387.974
26.20000 392.797
26.24000 377.450
26.28000 392.677
26.32000 369.561
26.36000 392.641
26.40000 396.556
26.44000 365.470
26.48000 400.549
26.52000 404.201
26.56000 378.205
26.60000 377.112
26.64000 400.367
26.68000 387.882
26.72000 381.815
26.76000 385.761
26.80000 382.667
26.84000 369.855
26.88000 371.967
26.92000 375.311
26.96000 393.858
27.00000 377.613
27.04000 378.059
27.08000 376.195
27.12000 385.929
27.16000 342.889
27.20000 367.817
27.24000 365.335
27.28000 364.952
27.32000 382.091
27.36000 355.535
27.40000 373.518
27.44000 375.860
27.48000 369.747
27.52000 382.754
27.56000 365.187
27.60000 361.567
27.64000 358.001
27.68000 371.797
27.72000 372.259
27.76000 382.591
27.80000 366.602
27.84000 367.468
27.88000 349.640
27.92000 373.999
27.96000 347.645
28.00000 380.269
28.04000 369.484
28.08000 373.840
28.12000 373.946
28.16000 374.026
28.20000 363.349
28.24000 371.687
28.28000 370.220
28.32000 359.207
28.36000 349.114
28.40000 370.271
28.44000 354.006
28.48000 357.884
28.52000 340.428
28.56000 353.060
28.60000 355.486
28.64000 349.799
28.68000 349.169
28.72000 349.466
28.76000 356.390
28.80000 357.292
28.84000 353.566
28.88000 360.677
28.92000 351.351
28.96000 354.565
29.00000 357.315
29.04000 338.089
29.08000 345.942
29.12000 342.335
29.16000 348.976
29.20000 356.151
29.24000 348.641
29.28000 349.841
29.32000 365.947
29.36000 346.671
29.40000 338.760
29.44000 338.623
29.48000 357.576
29.52000 356.394
29.56000 349.836
29.60000 347.187
29.64000 362.833
29.68000 355.397
29.72000 352.662
29.76000 358.291
29.80000 363.274
29.84000 365.328
29.88000 378.235
29.92000 381.498
29.96000 380.178
30.00000 373.443
30.04000 375.610
30.08000 391.548
30.12000 366.972
30.16000 363.096
30.20000 392.965
30.24000 378.964
30.28000 356.064
30.32000 347.271
30.36000 364.341
30.40000 359.704
30.44000 360.269
30.48000 381.048
30.52000 363.610
30.56000 363.603
30.60000 373.470
30.64000 365.208
30.68000 383.513
30.72000 386.070
30.76000 378.917
30.80000 392.315
30.84000 401.570
30.88000 420.000
30.92000 415.611
30.96000 435.043
31.00000 466.137
31.04000 478.331
31.08000 539.557
31.12000 619.497
31.16000 697.925
31.20000 792.738
31.24000 899.027
31.28000 1030.140
31.32000 1133.928
31.36000 1164.484
31.40000 1194.422
31.44000 1153.147
31.48000 1017.937
31.52000 901.498
31.56000 824.955
31.60000 719.162
31.64000 636.030
31.68000 558.151
31.72000 497.452
31.76000 461.552
31.80000 416.182
31.84000 416.889
31.88000 399.410
31.92000 376.865
31.96000 366.826
32.00000 369.900
32.04000 365.806
32.08000 358.590
32.12000 357.919
32.16000 342.417
32.20000 339.779
32.24000 345.876
32.28000 342.877
32.32000 354.737
32.36000 336.780
32.40000 333.226
32.44000 326.523
32.48000 329.319
32.52000 325.667
32.56000 325.708
32.60000 309.875
32.64000 320.137
32.68000 315.138
32.72000 315.277
32.76000 333.057
32.80000 354.825
32.84000 400.170
32.88000 442.043
32.92000 497.700
32.96000 535.716
33.00000 529.771
33.04000 501.910
33.08000 431.470
33.12000 378.078
33.16000 334.656
33.20000 322.157
33.24000 298.038
33.28000 303.722
33.32000 291.148
33.36000 300.071
33.40000 281.151
33.44000 296.382
33.48000 305.798
33.52000 298.069
33.56000 292.313
33.60000 280.565
33.64000 301.815
33.68000 307.154
33.72000 297.893
33.76000 294.480
33.80000 280.604
33.84000 298.601
33.88000 285.776
33.92000 302.408
33.96000 309.103
34.00000 303.931
34.04000 312.891
34.08000 312.171
34.12000 289.726
34.16000 329.879
34.20000 317.723
34.24000 319.621
34.28000 311.507
34.32000 316.456
34.36000 334.148
34.40000 330.471
34.44000 318.814
34.48000 318.981
34.52000 326.192
34.56000 315.555
34.60000 307.421
34.64000 300.596
34.68000 305.518
34.72000 288.534
34.76000 306.201
34.80000 288.540
34.84000 271.505
34.88000 276.419
34.92000 284.031
34.96000 270.507
35.00000 276.017
35.04000 273.720
35.08000 277.830
35.12000 277.215
35.16000 275.740
35.20000 259.990
35.24000 275.535
35.28000 261.852
35.32000 262.832
35.36000 259.810
35.40000 268.563
35.44000 260.387
35.48000 251.420
35.52000 260.252
35.56000 262.118
35.60000 270.819
35.64000 255.483
35.68000 258.605
35.72000 276.647
35.76000 264.353
35.80000 253.788
35.84000 253.522
35.88000 254.670
35.92000 253.470
35.96000 260.655
36.00000 269.135
36.04000 257.737
36.08000 250.685
36.12000 262.308
36.16000 257.502
36.20000 258.228
36.24000 246.256
36.28000 261.464
36.32000 265.596
36.36000 254.698
36.40000 255.655
36.44000 244.273
36.48000 256.446
36.52000 253.169
36.56000 246.671
36.60000 269.998
36.64000 256.285
36.68000 252.819
36.72000 258.341
36.76000 260.315
36.80000 260.819
36.84000 268.379
36.88000 267.347
36.92000 264.987
36.96000 267.077
37.00000 274.021
37.04000 271.431
37.08000 272.830
37.12000 255.476
37.16000 266.296
37.20000 265.794
37.24000 251.369
37.28000 251.974
37.32000 269.320
37.36000 245.014
37.40000 243.263
37.44000 261.286
37.48000 250.975
37.52000 250.775
37.56000 255.191
37.60000 251.627
37.64000 246.956
37.68000 249.813
37.72000 245.446
37.76000 250.180
37.80000 245.334
37.84000 247.580
37.88000 255.283
37.92000 255.647
37.96000 257.829
38.00000 247.112
38.04000 247.692
38.08000 277.097
38.12000 251.463
38.16000 245.729
38.20000 270.070
38.24000 263.072
38.28000 281.509
38.32000 286.775
38.36000 297.012
38.40000 329.072
38.44000 357.283
38.48000 413.522
38.52000 477.223
38.56000 563.381
38.60000 644.937
38.64000 719.764
38.68000 800.450
38.72000 819.881
38.76000 801.572
38.80000 762.098
38.84000 652.982
38.88000 549.306
38.92000 477.208
38.96000 401.954
39.00000 317.687
39.04000 308.484
39.08000 280.866
39.12000 261.119
39.16000 249.681
39.20000 244.916
39.24000 246.597
39.28000 244.675
39.32000 231.557
39.36000 233.704
39.40000 240.536
39.44000 227.699
39.48000 224.683
39.52000 229.868
39.56000 229.916
39.60000 233.158
39.64000 244.763
39.68000 235.462
39.72000 243.927
39.76000 228.186
39.80000 222.834
39.84000 210.706
39.88000 225.182
39.92000 237.367
39.96000 231.256
40.00000 224.989
40.04000 224.326
40.08000 232.616
40.12000 224.685
40.16000 220.235
40.20000 208.412
40.24000 230.654
40.28000 220.716
40.32000 224.843
40.36000 219.481
40.40000 212.285
40.44000 223.441
40.48000 220.660
40.52000 221.927
40.56000 223.383
40.60000 218.812
40.64000 209.077
40.68000 203.382
40.72000 220.180
40.76000 212.450
40.80000 206.502
40.84000 211.229
40.88000 217.017
40.92000 213.463
40.96000 207.267
41.00000 206.050
41.04000 219.160
41.08000 200.768
41.12000 214.511
41.16000 212.883
41.20000 205.391
41.24000 206.008
41.28000 209.520
41.32000 208.839
41.36000 215.248
41.40000 201.582
41.44000 189.701
41.48000 207.894
41.52000 209.182
41.56000 209.085
41.60000 196.452
41.64000 203.585
41.68000 197.623
41.72000 201.145
41.76000 202.695
41.80000 225.132
41.84000 202.336
41.88000 203.746
41.92000 202.225
41.96000 215.950
42.00000 210.911
42.04000 209.548
42.08000 214.853
42.12000 218.635
42.16000 224.782
42.20000 215.181
42.24000 222.678
42.28000 218.564
42.32000 212.395
42.36000 218.463
42.40000 216.737
42.44000 209.537
42.48000 213.559
42.52000 221.204
42.56000 203.043
42.60000 211.848
42.64000 216.434
42.68000 205.523
42.72000 209.674
42.76000 203.517
42.80000 205.911
42.84000 223.855
42.88000 209.657
42.92000 203.637
42.96000 198.266
43.00000 202.777
43.04000 186.163
43.08000 203.255
43.12000 210.466
43.16000 199.474
43.20000 192.812
43.24000 181.015
43.28000 196.291
43.32000 194.359
43.36000 195.447
43.40000 180.804
43.44000 188.598
43.48000 197.139
43.52000 197.831
43.56000 185.284
43.60000 200.321
43.64000 190.305
43.68000 180.357
43.72000 183.458
43.76000 194.921
43.80000 188.405
43.84000 195.773
43.88000 200.363
43.92000 182.811
43.96000 178.982
44.00000 190.872
44.04000 188.923
44.08000 188.433
44.12000 202.772
44.16000 194.332
44.20000 202.526
44.24000 198.119
44.28000 187.508
44.32000 202.092
44.36000 201.293
44.40000 212.183
44.44000 205.758
44.48000 212.031
44.52000 213.881
44.56000 208.913
44.60000 219.979
44.64000 210.559
44.68000 204.633
44.72000 206.743
44.76000 212.230
44.80000 217.023
44.84000 234.095
44.88000 249.468
44.92000 228.628
44.96000 240.735
45.00000 226.817
45.04000 224.506
45.08000 229.372
45.12000 216.440
45.16000 223.208
45.20000 222.219
45.24000 228.096
45.28000 213.897
45.32000 211.492
45.36000 212.762
45.40000 205.125
45.44000 208.713
45.48000 200.866
45.52000 205.498
45.56000 203.044
45.60000 191.981
45.64000 197.086
45.68000 195.409
45.72000 186.252
45.76000 184.337
45.80000 187.863
45.84000 178.610
45.88000 185.335
45.92000 185.701
45.96000 194.870
46.00000 181.028
46.04000 180.352
46.08000 185.022
46.12000 181.760
46.16000 183.892
46.20000 180.777
46.24000 169.483
46.28000 174.136
46.32000 173.332
46.36000 179.285
46.40000 172.970
46.44000 170.119
46.48000 177.955
46.52000 172.277
46.56000 187.752
46.60000 174.776
46.64000 179.734
46.68000 169.453
46.72000 167.780
46.76000 164.472
46.80000 172.909
46.84000 171.813
46.88000 167.163
46.92000 168.569
46.96000 167.898
47.00000 156.117
47.04000 160.216
47.08000 161.609
47.12000 167.620
47.16000 161.437
47.20000 150.832
47.24000 158.815
47.28000 158.359
47.32000 165.536
47.36000 157.142
47.40000 164.904
47.44000 165.052
47.48000 160.213
47.52000 178.170
47.56000 157.177
47.60000 155.654
47.64000 156.508
47.68000 156.323
47.72000 154.573
47.76000 167.197
47.80000 165.927
47.84000 172.933
47.88000 162.972
47.92000 157.326
47.96000 162.875
48.00000 153.899
48.04000 155.720
48.08000 155.248
48.12000 162.886
48.16000 167.528
48.20000 156.625
48.24000 156.417
48.28000 168.863
48.32000 161.830
48.36000 155.729
48.40000 152.593
48.44000 161.877
48.48000 157.807
48.52000 157.480
48.56000 152.387
48.60000 154.670
48.64000 159.088
48.68000 162.390
48.72000 150.738
48.76000 160.666
48.80000 153.103
48.84000 145.130
48.88000 164.856
48.92000 160.240
48.96000 165.290
49.00000 157.374
49.04000 152.228
49.08000 146.808
49.12000 157.792
49.16000 148.632
49.20000 157.214
49.24000 149.836
49.28000 154.712
49.32000 157.466
49.36000 152.734
49.40000 151.005
49.44000 149.869
49.48000 159.205
49.52000 163.660
49.56000 154.014
49.60000 157.202
49.64000 148.064
49.68000 143.252
49.72000 161.341
49.76000 160.846
49.80000 152.181
49.84000 149.109
49.88000 154.934
49.92000 144.733
49.96000 144.024
50.00000 155.925
50.04000 159.400
50.08000 157.182
50.12000 156.870
50.16000 146.199
50.20000 147.911
50.24000 158.173
50.28000 151.043
50.32000 148.585
50.36000 162.764
50.40000 164.144
50.44000 155.717
50.48000 158.706
50.52000 152.908
50.56000 157.782
50.60000 165.924
50.64000 176.516
50.68000 166.561
50.72000 164.178
50.76000 167.580
50.80000 154.370
50.84000 160.357
50.88000 150.772
50.92000 148.892
50.96000 160.037
51.00000 152.301
51.04000 151.334
51.08000 143.686
51.12000 145.928
51.16000 147.059
51.20000 148.993
51.24000 142.825
51.28000 151.157
51.32000 141.789
51.36000 140.362
51.40000 153.432
51.44000 143.264
51.48000 145.531
51.52000 138.681
51.56000 142.633
51.60000 141.867
51.64000 139.957
51.68000 139.618
51.72000 137.530
51.76000 148.950
51.80000 139.656
51.84000 139.178
51.88000 143.053
51.92000 153.280
51.96000 145.695
52.00000 140.066
52.04000 141.188
52.08000 146.650
52.12000 135.766
52.16000 137.868
52.20000 145.578
52.24000 140.119
52.28000 140.429
52.32000 140.152
52.36000 134.901
52.40000 154.053
52.44000 145.957
52.48000 129.070
52.52000 149.117
52.56000 135.927
52.60000 140.204
52.64000 136.702
52.68000 145.837
52.72000 135.583
52.76000 140.026
52.80000 132.831
52.84000 138.929
52.88000 137.996
52.92000 141.905
52.96000 143.358
53.00000 147.019
53.04000 141.679
53.08000 136.329
53.12000 141.783
53.16000 139.908
53.20000 142.382
53.24000 148.590
53.28000 149.365
53.32000 154.156
53.36000 156.782
53.40000 148.751
53.44000 150.071
53.48000 150.548
53.52000 152.849
53.56000 152.942
53.60000 147.954
53.64000 146.295
53.68000 149.419
53.72000 132.012
53.76000 147.039
53.80000 135.585
53.84000 143.856
53.88000 145.814
53.92000 144.294
53.96000 139.725
54.00000 139.615
54.04000 147.568
54.08000 146.530
54.12000 137.958
54.16000 148.892
54.20000 132.740
54.24000 138.246
54.28000 130.841
54.32000 132.395
54.36000 138.271
54.40000 140.332
54.44000 141.330
54.48000 136.675
54.52000 149.143
54.56000 134.160
54.60000 143.286
54.64000 129.104
54.68000 144.889
54.72000 136.798
54.76000 140.449
54.80000 129.894
54.84000 138.797
54.88000 149.216
54.92000 132.695
54.96000 150.923
55.00000 159.499
55.04000 144.974
55.08000 151.306
55.12000 146.128
55.16000 149.356
55.20000 154.635
55.24000 152.166
55.28000 158.874
55.32000 165.932
55.36000 160.130
55.40000 179.473
55.44000 172.145
55.48000 194.475
55.52000 202.715
55.56000 205.824
55.60000 217.712
55.64000 254.375
55.68000 274.010
55.72000 297.077
55.76000 337.995
55.80000 386.574
55.84000 384.588
55.88000 416.602
55.92000 427.926
55.96000 447.767
56.00000 442.433
56.04000 424.461
56.08000 400.106
56.12000 349.107
56.16000 320.030
56.20000 307.986
56.24000 281.456
56.28000 248.991
56.32000 218.804
56.36000 199.671
56.40000 185.578
56.44000 170.912
56.48000 168.454
56.52000 152.886
56.56000 153.517
56.60000 151.043
56.64000 148.650
56.68000 141.100
56.72000 140.359
56.76000 137.505
56.80000 143.286
56.84000 130.219
56.88000 129.828
56.92000 131.014
56.96000 128.272
57.00000 123.079
57.04000 124.691
57.08000 137.341
57.12000 124.970
57.16000 134.075
57.20000 124.436
57.24000 130.083
57.28000 132.693
57.32000 133.676
57.36000 127.787
57.40000 123.762
57.44000 126.215
57.48000 129.445
57.52000 122.120
57.56000 121.575
57.60000 126.525
57.64000 129.167
57.68000 127.061
57.72000 120.018
57.76000 127.977
57.80000 120.754
57.84000 128.089
57.88000 122.161
57.92000 124.241
57.96000 137.194
58.00000 124.282
58.04000 121.458
58.08000 120.402
58.12000 120.490
58.16000 125.127
58.20000 129.563
58.24000 128.721
58.28000 126.648
58.32000 117.657
58.36000 123.889
58.40000 129.961
58.44000 116.510
58.48000 122.325
58.52000 117.816
58.56000 109.276
58.60000 121.077
58.64000 124.955
58.68000 128.963
58.72000 112.453
58.76000 117.436
58.80000 117.414
58.84000 123.361
58.88000 128.521
58.92000 121.133
58.96000 119.771
59.00000 119.085
59.04000 115.490
59.08000 119.648
59.12000 116.984
59.16000 110.263
59.20000 126.901
59.24000 125.141
59.28000 121.108
59.32000 117.303
59.36000 130.429
59.40000 125.471
59.44000 112.681
59.48000 116.127
59.52000 113.387
59.56000 108.403
59.60000 124.491
59.64000 111.218
59.68000 125.352
59.72000 119.377
59.76000 119.773
59.80000 109.706
59.84000 112.493
59.88000 116.045
59.92000 120.710
59.96000 115.596
60.00000 123.949
60.04000 116.737
60.08000 116.126
60.12000 120.000
60.16000 115.953
60.20000 117.147
60.24000 117.753
60.28000 119.708
60.32000 108.070
60.36000 114.701
60.40000 120.426
60.44000 126.868
60.48000 121.842
60.52000 123.359
60.56000 119.063
60.60000 115.327
60.64000 118.895
60.68000 109.049
60.72000 111.763
60.76000 116.927
60.80000 126.770
60.84000 124.112
60.88000 117.658
60.92000 118.163
60.96000 117.680
61.00000 124.860
61.04000 121.601
61.08000 124.266
61.12000 131.917
61.16000 124.235
61.20000 131.916
61.24000 128.979
61.28000 133.210
61.32000 126.337
61.36000 122.682
61.40000 119.734
61.44000 127.156
61.48000 122.782
61.52000 144.510
61.56000 198.702
61.60000 247.112
61.64000 286.064
61.68000 288.864
61.72000 290.638
61.76000 283.301
61.80000 216.855
61.84000 171.984
61.88000 137.748
61.92000 130.230
61.96000 137.290
62.00000 126.470
62.04000 142.865
62.08000 133.639
62.12000 125.431
62.16000 141.487
62.20000 129.989
62.24000 125.151
62.28000 117.554
62.32000 125.195
62.36000 140.058
62.40000 130.142
62.44000 127.078
62.48000 130.535
62.52000 134.226
62.56000 134.410
62.60000 131.542
62.64000 132.538
62.68000 136.362
62.72000 122.120
62.76000 139.011
62.80000 126.498
62.84000 130.616
62.88000 131.683
62.92000 138.680
62.96000 121.475
63.00000 128.392
63.04000 132.559
63.08000 128.764
63.12000 129.004
63.16000 127.687
63.20000 137.581
63.24000 126.678
63.28000 138.740
63.32000 127.583
63.36000 139.787
63.40000 126.408
63.44000 129.440
63.48000 133.405
63.52000 141.200
63.56000 128.346
63.60000 114.678
63.64000 136.807
63.68000 139.811
63.72000 134.881
63.76000 137.991
63.80000 148.026
63.84000 133.076
63.88000 150.264
63.92000 145.931
63.96000 148.752
64.00000 146.121
64.04000 138.616
64.08000 152.352
64.12000 154.667
64.16000 146.784
64.20000 144.894
64.24000 153.346
64.28000 143.624
64.32000 147.806
64.36000 146.973
64.40000 158.271
64.44000 157.083
64.48000 152.118
64.52000 154.337
64.56000 154.702
64.60000 150.100
64.64000 155.940
64.68000 150.340
64.72000 165.175
64.76000 167.239
64.80000 177.271
64.84000 191.699
64.88000 177.124
64.92000 185.106
64.96000 174.970
65.00000 174.330
65.04000 193.666
65.08000 198.894
65.12000 201.615
65.16000 209.588
65.20000 210.693
65.24000 217.423
65.28000 227.867
65.32000 238.532
65.36000 238.719
65.40000 263.925
65.44000 283.120
65.48000 283.633
65.52000 287.475
65.56000 308.850
65.60000 354.451
65.64000 419.272
65.68000 570.696
65.72000 864.044
65.76000 1344.750
65.80000 1756.732
65.84000 1907.854
65.88000 1955.406
65.92000 1881.042
65.96000 1537.073
66.00000 1031.510
66.04000 645.814
66.08000 470.870
66.12000 398.908
66.16000 381.137
66.20000 362.598
66.24000 399.677
66.28000 435.568
66.32000 533.685
66.36000 596.382
66.40000 638.750
66.44000 592.260
66.48000 577.559
66.52000 553.914
66.56000 429.512
66.60000 392.009
66.64000 354.098
66.68000 347.549
66.72000 344.497
66.76000 353.774
66.80000 355.078
66.84000 346.192
66.88000 357.453
66.92000 356.925
66.96000 358.669
67.00000 368.560
67.04000 365.558
67.08000 382.619
67.12000 373.425
67.16000 391.100
67.20000 388.260
67.24000 392.615
67.28000 390.080
67.32000 389.992
67.36000 387.796
67.40000 421.207
67.44000 424.032
67.48000 423.777
67.52000 424.292
67.56000 423.279
67.60000 435.988
67.64000 428.172
67.68000 460.085
67.72000 455.647
67.76000 457.683
67.80000 462.728
67.84000 471.071
67.88000 496.042
67.92000 484.417
67.96000 489.341
68.00000 501.726
68.04000 509.372
68.08000 502.277
68.12000 509.899
68.16000 524.035
68.20000 531.128
68.24000 547.502
68.28000 571.184
68.32000 569.633
68.36000 586.924
68.40000 640.276
68.44000 644.100
68.48000 651.923
68.52000 677.310
68.56000 733.355
68.60000 830.000
68.64000 941.906
68.68000 1126.771
68.72000 1283.109
68.76000 1416.975
68.80000 1561.311
68.84000 1824.907
68.88000 2199.539
68.92000 3222.880
68.96000 8708.280
69.00000 20329.443
69.04000 32986.031
69.08000 39904.094
69.12000 42621.719
69.16000 45585.191
69.20000 45389.313
69.24000 36760.414
69.28000 27014.779
69.32000 22058.154
69.36000 20457.889
69.40000 17352.043
69.44000 11025.123
69.48000 4971.983
69.52000 2107.191
69.56000 1354.166
69.60000 1045.268
69.64000 908.087
69.68000 796.782
69.72000 717.087
69.76000 661.039
69.80000 623.356
69.84000 567.480
69.88000 543.037
69.92000 538.947
69.96000 500.884
70.00000 480.675