File: XRD/XRD/07-10-2025 Dep 6/XY Data/BTO_Mapping_Theta2Theta_07-10-2025_001_09_36-542_16-269.xy
20.00000 475.443
20.04000 469.053
20.08000 468.224
20.12000 462.830
20.16000 459.001
20.20000 452.096
20.24000 469.367
20.28000 469.000
20.32000 454.421
20.36000 470.646
20.40000 478.893
20.44000 454.611
20.48000 465.977
20.52000 474.986
20.56000 469.069
20.60000 463.620
20.64000 478.135
20.68000 482.712
20.72000 469.645
20.76000 455.184
20.80000 463.286
20.84000 450.346
20.88000 459.149
20.92000 448.173
20.96000 459.502
21.00000 452.187
21.04000 466.482
21.08000 469.592
21.12000 449.919
21.16000 464.540
21.20000 449.064
21.24000 464.336
21.28000 464.914
21.32000 468.601
21.36000 451.651
21.40000 456.831
21.44000 465.796
21.48000 464.254
21.52000 477.147
21.56000 474.002
21.60000 459.511
21.64000 449.661
21.68000 443.004
21.72000 459.318
21.76000 448.132
21.80000 461.950
21.84000 459.430
21.88000 473.355
21.92000 479.808
21.96000 441.942
22.00000 478.023
22.04000 502.604
22.08000 504.176
22.12000 457.278
22.16000 475.262
22.20000 465.310
22.24000 459.349
22.28000 463.919
22.32000 456.658
22.36000 461.158
22.40000 474.616
22.44000 452.922
22.48000 447.693
22.52000 451.108
22.56000 459.127
22.60000 450.177
22.64000 446.700
22.68000 451.628
22.72000 455.812
22.76000 449.515
22.80000 441.300
22.84000 448.343
22.88000 442.072
22.92000 447.690
22.96000 426.672
23.00000 436.867
23.04000 450.101
23.08000 446.261
23.12000 432.396
23.16000 429.851
23.20000 444.145
23.24000 424.902
23.28000 436.986
23.32000 463.668
23.36000 439.815
23.40000 454.341
23.44000 449.007
23.48000 442.812
23.52000 436.129
23.56000 453.361
23.60000 458.153
23.64000 460.004
23.68000 431.671
23.72000 448.117
23.76000 458.632
23.80000 480.515
23.84000 479.566
23.88000 490.998
23.92000 480.040
23.96000 490.211
24.00000 494.600
24.04000 484.812
24.08000 474.830
24.12000 478.000
24.16000 456.276
24.20000 472.034
24.24000 472.142
24.28000 428.897
24.32000 424.560
24.36000 441.236
24.40000 425.889
24.44000 423.126
24.48000 407.525
24.52000 419.752
24.56000 396.995
24.60000 418.866
24.64000 406.855
24.68000 434.432
24.72000 419.612
24.76000 419.791
24.80000 428.253
24.84000 416.303
24.88000 415.024
24.92000 399.558
24.96000 394.766
25.00000 409.499
25.04000 395.191
25.08000 391.543
25.12000 407.259
25.16000 408.373
25.20000 403.781
25.24000 403.385
25.28000 386.151
25.32000 409.020
25.36000 381.071
25.40000 388.492
25.44000 404.918
25.48000 419.460
25.52000 417.349
25.56000 397.419
25.60000 386.743
25.64000 400.140
25.68000 417.703
25.72000 399.679
25.76000 394.783
25.80000 379.193
25.84000 398.221
25.88000 394.626
25.92000 387.301
25.96000 385.739
26.00000 378.447
26.04000 376.316
26.08000 377.956
26.12000 392.990
26.16000 373.531
26.20000 370.034
26.24000 367.230
26.28000 396.171
26.32000 403.357
26.36000 384.563
26.40000 374.425
26.44000 384.728
26.48000 387.033
26.52000 395.027
26.56000 401.186
26.60000 380.778
26.64000 368.585
26.68000 370.618
26.72000 369.598
26.76000 387.422
26.80000 377.769
26.84000 372.990
26.88000 357.234
26.92000 387.922
26.96000 349.847
27.00000 377.441
27.04000 384.932
27.08000 379.510
27.12000 371.098
27.16000 370.601
27.20000 383.842
27.24000 369.633
27.28000 386.242
27.32000 360.093
27.36000 362.697
27.40000 373.720
27.44000 383.297
27.48000 369.467
27.52000 369.522
27.56000 367.583
27.60000 373.102
27.64000 388.143
27.68000 378.748
27.72000 375.691
27.76000 389.797
27.80000 364.208
27.84000 361.729
27.88000 359.748
27.92000 367.489
27.96000 359.431
28.00000 386.599
28.04000 363.562
28.08000 362.644
28.12000 369.905
28.16000 360.101
28.20000 366.920
28.24000 359.047
28.28000 362.118
28.32000 367.205
28.36000 350.719
28.40000 370.626
28.44000 360.477
28.48000 364.534
28.52000 359.200
28.56000 364.084
28.60000 374.817
28.64000 357.401
28.68000 379.395
28.72000 349.182
28.76000 383.735
28.80000 376.182
28.84000 376.396
28.88000 360.333
28.92000 358.413
28.96000 372.441
29.00000 379.208
29.04000 358.286
29.08000 348.712
29.12000 377.883
29.16000 362.404
29.20000 376.671
29.24000 365.397
29.28000 358.150
29.32000 364.145
29.36000 351.866
29.40000 366.906
29.44000 339.106
29.48000 368.764
29.52000 367.574
29.56000 362.592
29.60000 373.530
29.64000 362.951
29.68000 352.906
29.72000 360.391
29.76000 374.492
29.80000 343.835
29.84000 357.576
29.88000 374.045
29.92000 362.077
29.96000 375.930
30.00000 366.793
30.04000 377.960
30.08000 385.033
30.12000 379.443
30.16000 376.800
30.20000 373.625
30.24000 361.917
30.28000 354.167
30.32000 379.400
30.36000 346.802
30.40000 351.300
30.44000 353.950
30.48000 360.207
30.52000 370.535
30.56000 377.849
30.60000 367.434
30.64000 361.101
30.68000 372.552
30.72000 378.282
30.76000 377.279
30.80000 394.571
30.84000 385.572
30.88000 395.942
30.92000 388.718
30.96000 420.739
31.00000 432.420
31.04000 455.687
31.08000 494.761
31.12000 529.116
31.16000 593.067
31.20000 658.292
31.24000 686.790
31.28000 750.971
31.32000 827.534
31.36000 832.372
31.40000 853.924
31.44000 836.880
31.48000 789.320
31.52000 725.432
31.56000 669.218
31.60000 580.230
31.64000 561.681
31.68000 498.528
31.72000 475.566
31.76000 439.204
31.80000 427.651
31.84000 395.833
31.88000 411.422
31.92000 400.216
31.96000 405.020
32.00000 372.137
32.04000 361.655
32.08000 371.127
32.12000 361.536
32.16000 352.812
32.20000 354.845
32.24000 350.666
32.28000 365.159
32.32000 355.510
32.36000 331.238
32.40000 328.446
32.44000 336.993
32.48000 340.599
32.52000 325.275
32.56000 341.179
32.60000 336.896
32.64000 327.766
32.68000 320.315
32.72000 320.812
32.76000 327.064
32.80000 337.414
32.84000 371.999
32.88000 447.811
32.92000 517.862
32.96000 556.870
33.00000 573.905
33.04000 527.353
33.08000 465.743
33.12000 395.882
33.16000 357.509
33.20000 329.442
33.24000 298.631
33.28000 319.804
33.32000 294.477
33.36000 294.374
33.40000 289.016
33.44000 298.026
33.48000 291.941
33.52000 291.493
33.56000 287.497
33.60000 298.811
33.64000 292.965
33.68000 298.364
33.72000 293.328
33.76000 293.848
33.80000 302.030
33.84000 294.602
33.88000 279.008
33.92000 302.817
33.96000 296.230
34.00000 296.466
34.04000 302.699
34.08000 297.086
34.12000 308.942
34.16000 301.888
34.20000 303.261
34.24000 302.001
34.28000 298.222
34.32000 307.878
34.36000 305.245
34.40000 295.576
34.44000 301.047
34.48000 303.007
34.52000 297.018
34.56000 292.829
34.60000 283.806
34.64000 291.509
34.68000 291.882
34.72000 279.203
34.76000 271.779
34.80000 282.360
34.84000 274.995
34.88000 278.854
34.92000 287.650
34.96000 287.496
35.00000 264.676
35.04000 266.785
35.08000 264.193
35.12000 267.234
35.16000 289.059
35.20000 273.607
35.24000 262.484
35.28000 271.449
35.32000 270.547
35.36000 262.112
35.40000 264.825
35.44000 282.115
35.48000 260.894
35.52000 257.332
35.56000 272.277
35.60000 261.262
35.64000 261.328
35.68000 277.982
35.72000 267.097
35.76000 250.875
35.80000 270.783
35.84000 259.154
35.88000 255.925
35.92000 255.724
35.96000 247.850
36.00000 265.864
36.04000 251.917
36.08000 249.906
36.12000 255.689
36.16000 260.259
36.20000 249.699
36.24000 252.222
36.28000 257.553
36.32000 264.483
36.36000 247.270
36.40000 241.532
36.44000 259.103
36.48000 260.409
36.52000 251.677
36.56000 256.416
36.60000 247.765
36.64000 256.404
36.68000 250.025
36.72000 250.409
36.76000 244.661
36.80000 251.390
36.84000 243.512
36.88000 257.555
36.92000 250.737
36.96000 254.935
37.00000 266.062
37.04000 269.815
37.08000 266.871
37.12000 247.924
37.16000 254.919
37.20000 251.318
37.24000 251.562
37.28000 255.259
37.32000 252.367
37.36000 250.336
37.40000 253.319
37.44000 236.195
37.48000 245.275
37.52000 239.923
37.56000 263.277
37.60000 241.931
37.64000 250.318
37.68000 250.469
37.72000 244.095
37.76000 248.468
37.80000 255.396
37.84000 248.789
37.88000 249.129
37.92000 253.332
37.96000 249.324
38.00000 256.620
38.04000 244.226
38.08000 251.544
38.12000 257.816
38.16000 248.228
38.20000 275.136
38.24000 269.737
38.28000 276.230
38.32000 274.965
38.36000 274.673
38.40000 275.260
38.44000 315.628
38.48000 336.272
38.52000 367.528
38.56000 392.319
38.60000 423.817
38.64000 442.687
38.68000 466.965
38.72000 466.932
38.76000 464.707
38.80000 441.118
38.84000 393.341
38.88000 369.930
38.92000 318.257
38.96000 315.828
39.00000 291.811
39.04000 261.272
39.08000 261.743
39.12000 248.735
39.16000 247.330
39.20000 251.423
39.24000 242.190
39.28000 251.519
39.32000 237.662
39.36000 257.996
39.40000 236.416
39.44000 248.208
39.48000 242.916
39.52000 222.489
39.56000 237.930
39.60000 226.787
39.64000 238.755
39.68000 235.251
39.72000 241.244
39.76000 244.270
39.80000 229.145
39.84000 227.127
39.88000 226.587
39.92000 220.156
39.96000 230.686
40.00000 219.767
40.04000 226.124
40.08000 214.051
40.12000 232.358
40.16000 221.299
40.20000 222.396
40.24000 210.430
40.28000 228.101
40.32000 226.756
40.36000 220.002
40.40000 211.013
40.44000 215.266
40.48000 205.830
40.52000 218.006
40.56000 220.915
40.60000 220.712
40.64000 212.234
40.68000 230.066
40.72000 218.032
40.76000 213.013
40.80000 218.076
40.84000 215.082
40.88000 200.774
40.92000 221.258
40.96000 222.787
41.00000 214.335
41.04000 206.388
41.08000 207.917
41.12000 200.431
41.16000 209.992
41.20000 207.394
41.24000 201.988
41.28000 198.093
41.32000 210.733
41.36000 209.669
41.40000 206.537
41.44000 204.138
41.48000 202.958
41.52000 195.327
41.56000 204.907
41.60000 199.183
41.64000 206.209
41.68000 211.762
41.72000 195.127
41.76000 197.340
41.80000 217.736
41.84000 207.158
41.88000 204.673
41.92000 207.708
41.96000 220.392
42.00000 207.889
42.04000 203.846
42.08000 206.339
42.12000 195.797
42.16000 206.126
42.20000 198.724
42.24000 222.322
42.28000 203.344
42.32000 219.701
42.36000 204.765
42.40000 218.516
42.44000 222.488
42.48000 208.705
42.52000 195.156
42.56000 206.463
42.60000 203.156
42.64000 198.573
42.68000 207.732
42.72000 197.622
42.76000 193.941
42.80000 208.796
42.84000 187.846
42.88000 204.062
42.92000 193.679
42.96000 196.578
43.00000 194.764
43.04000 203.419
43.08000 198.845
43.12000 182.560
43.16000 203.179
43.20000 193.265
43.24000 190.921
43.28000 199.213
43.32000 183.319
43.36000 189.177
43.40000 193.335
43.44000 191.951
43.48000 203.934
43.52000 195.376
43.56000 191.971
43.60000 177.954
43.64000 186.772
43.68000 200.327
43.72000 199.402
43.76000 193.525
43.80000 201.514
43.84000 185.581
43.88000 196.139
43.92000 187.601
43.96000 199.104
44.00000 194.225
44.04000 196.138
44.08000 189.997
44.12000 192.663
44.16000 191.480
44.20000 198.944
44.24000 188.451
44.28000 182.360
44.32000 195.324
44.36000 195.994
44.40000 199.804
44.44000 193.531
44.48000 196.736
44.52000 200.450
44.56000 195.304
44.60000 205.160
44.64000 205.902
44.68000 191.441
44.72000 198.642
44.76000 214.097
44.80000 208.446
44.84000 214.730
44.88000 209.440
44.92000 221.572
44.96000 218.530
45.00000 220.086
45.04000 204.955
45.08000 208.106
45.12000 220.891
45.16000 212.027
45.20000 212.904
45.24000 203.839
45.28000 204.869
45.32000 202.593
45.36000 186.485
45.40000 197.161
45.44000 201.067
45.48000 206.936
45.52000 208.013
45.56000 185.912
45.60000 196.413
45.64000 180.045
45.68000 189.151
45.72000 177.882
45.76000 176.318
45.80000 173.102
45.84000 190.350
45.88000 174.514
45.92000 181.416
45.96000 162.508
46.00000 179.741
46.04000 184.523
46.08000 164.239
46.12000 167.351
46.16000 178.078
46.20000 175.450
46.24000 180.585
46.28000 176.066
46.32000 171.577
46.36000 169.786
46.40000 179.178
46.44000 179.725
46.48000 175.711
46.52000 179.147
46.56000 172.646
46.60000 166.328
46.64000 178.277
46.68000 168.516
46.72000 171.699
46.76000 173.710
46.80000 170.026
46.84000 165.433
46.88000 174.461
46.92000 171.492
46.96000 172.851
47.00000 165.316
47.04000 169.762
47.08000 170.364
47.12000 175.197
47.16000 157.788
47.20000 160.674
47.24000 172.260
47.28000 162.268
47.32000 166.303
47.36000 164.658
47.40000 151.862
47.44000 177.185
47.48000 165.707
47.52000 167.562
47.56000 157.752
47.60000 151.614
47.64000 165.917
47.68000 158.440
47.72000 167.628
47.76000 166.291
47.80000 165.593
47.84000 152.813
47.88000 153.790
47.92000 160.099
47.96000 161.095
48.00000 159.627
48.04000 161.248
48.08000 165.677
48.12000 158.187
48.16000 167.048
48.20000 154.194
48.24000 169.067
48.28000 164.800
48.32000 154.444
48.36000 158.588
48.40000 153.758
48.44000 162.858
48.48000 147.507
48.52000 157.088
48.56000 160.596
48.60000 153.773
48.64000 149.063
48.68000 152.227
48.72000 164.787
48.76000 166.050
48.80000 161.326
48.84000 154.251
48.88000 155.258
48.92000 165.951
48.96000 155.680
49.00000 160.016
49.04000 166.314
49.08000 144.479
49.12000 159.626
49.16000 162.769
49.20000 160.478
49.24000 157.130
49.28000 149.477
49.32000 159.276
49.36000 156.072
49.40000 150.440
49.44000 156.850
49.48000 164.862
49.52000 149.143
49.56000 155.288
49.60000 149.747
49.64000 158.852
49.68000 161.388
49.72000 158.136
49.76000 148.274
49.80000 149.919
49.84000 153.973
49.88000 149.314
49.92000 162.093
49.96000 143.121
50.00000 161.243
50.04000 158.325
50.08000 155.564
50.12000 159.176
50.16000 152.081
50.20000 152.141
50.24000 153.313
50.28000 150.429
50.32000 162.668
50.36000 150.161
50.40000 156.388
50.44000 156.722
50.48000 167.114
50.52000 165.632
50.56000 160.065
50.60000 166.811
50.64000 166.681
50.68000 161.016
50.72000 157.946
50.76000 165.852
50.80000 144.314
50.84000 156.436
50.88000 164.370
50.92000 165.255
50.96000 152.207
51.00000 159.903
51.04000 149.545
51.08000 153.783
51.12000 155.321
51.16000 161.051
51.20000 146.944
51.24000 156.680
51.28000 154.797
51.32000 152.522
51.36000 139.856
51.40000 146.754
51.44000 141.887
51.48000 147.107
51.52000 141.869
51.56000 143.521
51.60000 142.387
51.64000 140.683
51.68000 138.024
51.72000 146.191
51.76000 146.786
51.80000 135.273
51.84000 145.230
51.88000 149.276
51.92000 144.529
51.96000 142.421
52.00000 140.947
52.04000 139.962
52.08000 146.616
52.12000 144.828
52.16000 144.944
52.20000 141.542
52.24000 136.610
52.28000 140.804
52.32000 135.923
52.36000 142.698
52.40000 138.183
52.44000 142.357
52.48000 141.994
52.52000 137.400
52.56000 137.267
52.60000 131.814
52.64000 133.738
52.68000 134.882
52.72000 133.060
52.76000 132.806
52.80000 135.493
52.84000 140.072
52.88000 136.700
52.92000 132.522
52.96000 127.492
53.00000 139.248
53.04000 133.839
53.08000 145.295
53.12000 133.782
53.16000 148.750
53.20000 135.608
53.24000 140.737
53.28000 137.857
53.32000 142.698
53.36000 136.148
53.40000 141.008
53.44000 135.207
53.48000 135.551
53.52000 124.607
53.56000 144.192
53.60000 145.108
53.64000 135.319
53.68000 140.527
53.72000 136.993
53.76000 128.539
53.80000 127.522
53.84000 137.443
53.88000 139.151
53.92000 135.253
53.96000 131.313
54.00000 130.618
54.04000 135.711
54.08000 139.544
54.12000 139.694
54.16000 131.918
54.20000 136.049
54.24000 133.762
54.28000 133.477
54.32000 138.135
54.36000 139.506
54.40000 130.164
54.44000 136.857
54.48000 134.387
54.52000 132.459
54.56000 135.787
54.60000 135.856
54.64000 141.675
54.68000 135.476
54.72000 135.259
54.76000 141.456
54.80000 148.531
54.84000 145.728
54.88000 133.528
54.92000 149.820
54.96000 145.796
55.00000 139.571
55.04000 138.104
55.08000 135.285
55.12000 133.259
55.16000 143.742
55.20000 142.154
55.24000 148.874
55.28000 151.046
55.32000 137.399
55.36000 145.920
55.40000 146.460
55.44000 159.296
55.48000 152.747
55.52000 168.221
55.56000 175.850
55.60000 169.310
55.64000 177.651
55.68000 191.968
55.72000 203.107
55.76000 203.694
55.80000 205.746
55.84000 224.091
55.88000 215.458
55.92000 224.664
55.96000 209.313
56.00000 222.364
56.04000 213.522
56.08000 208.981
56.12000 189.953
56.16000 204.753
56.20000 187.772
56.24000 178.357
56.28000 173.094
56.32000 166.634
56.36000 155.763
56.40000 156.436
56.44000 150.015
56.48000 146.240
56.52000 153.575
56.56000 147.353
56.60000 138.706
56.64000 137.018
56.68000 138.840
56.72000 136.682
56.76000 136.341
56.80000 131.775
56.84000 148.273
56.88000 131.336
56.92000 123.663
56.96000 136.008
57.00000 136.440
57.04000 132.749
57.08000 125.705
57.12000 131.508
57.16000 136.528
57.20000 124.292
57.24000 126.159
57.28000 125.522
57.32000 125.568
57.36000 122.536
57.40000 123.785
57.44000 125.433
57.48000 128.745
57.52000 121.514
57.56000 130.038
57.60000 121.867
57.64000 124.160
57.68000 128.821
57.72000 131.704
57.76000 122.107
57.80000 118.376
57.84000 118.331
57.88000 120.864
57.92000 130.233
57.96000 122.703
58.00000 132.182
58.04000 136.776
58.08000 116.140
58.12000 123.913
58.16000 123.868
58.20000 110.058
58.24000 122.743
58.28000 119.082
58.32000 120.398
58.36000 124.362
58.40000 114.188
58.44000 127.084
58.48000 125.232
58.52000 126.420
58.56000 115.535
58.60000 119.317
58.64000 115.395
58.68000 110.396
58.72000 119.418
58.76000 118.872
58.80000 113.715
58.84000 120.689
58.88000 117.178
58.92000 117.672
58.96000 114.977
59.00000 114.624
59.04000 116.588
59.08000 112.750
59.12000 117.996
59.16000 120.536
59.20000 124.406
59.24000 116.312
59.28000 117.406
59.32000 110.473
59.36000 105.250
59.40000 114.840
59.44000 111.256
59.48000 112.638
59.52000 111.214
59.56000 105.216
59.60000 116.173
59.64000 120.643
59.68000 115.787
59.72000 115.819
59.76000 107.844
59.80000 117.058
59.84000 116.641
59.88000 104.814
59.92000 112.493
59.96000 117.245
60.00000 126.883
60.04000 109.979
60.08000 111.382
60.12000 112.836
60.16000 116.721
60.20000 120.651
60.24000 119.627
60.28000 115.216
60.32000 120.954
60.36000 115.811
60.40000 113.161
60.44000 114.973
60.48000 118.092
60.52000 122.898
60.56000 124.915
60.60000 117.691
60.64000 115.564
60.68000 120.508
60.72000 121.819
60.76000 123.096
60.80000 121.311
60.84000 119.687
60.88000 121.202
60.92000 122.698
60.96000 116.426
61.00000 114.693
61.04000 119.700
61.08000 123.813
61.12000 129.974
61.16000 123.803
61.20000 126.776
61.24000 126.776
61.28000 118.495
61.32000 119.135
61.36000 124.575
61.40000 128.320
61.44000 130.637
61.48000 142.262
61.52000 142.235
61.56000 188.514
61.60000 243.464
61.64000 272.027
61.68000 298.811
61.72000 309.345
61.76000 293.343
61.80000 243.617
61.84000 175.404
61.88000 149.354
61.92000 134.786
61.96000 127.576
62.00000 135.189
62.04000 129.539
62.08000 133.299
62.12000 131.743
62.16000 125.886
62.20000 131.920
62.24000 131.039
62.28000 126.880
62.32000 128.816
62.36000 127.813
62.40000 130.901
62.44000 128.712
62.48000 127.152
62.52000 127.590
62.56000 129.963
62.60000 117.882
62.64000 121.807
62.68000 122.667
62.72000 132.649
62.76000 126.113
62.80000 130.709
62.84000 132.674
62.88000 128.637
62.92000 125.498
62.96000 128.577
63.00000 136.524
63.04000 134.698
63.08000 133.974
63.12000 136.000
63.16000 132.275
63.20000 140.584
63.24000 133.027
63.28000 138.715
63.32000 136.393
63.36000 140.252
63.40000 140.554
63.44000 142.916
63.48000 133.298
63.52000 131.108
63.56000 131.980
63.60000 142.682
63.64000 150.338
63.68000 138.261
63.72000 138.552
63.76000 133.355
63.80000 141.542
63.84000 134.919
63.88000 141.351
63.92000 156.791
63.96000 153.115
64.00000 142.985
64.04000 140.705
64.08000 146.015
64.12000 145.850
64.16000 148.087
64.20000 149.561
64.24000 150.756
64.28000 155.021
64.32000 153.860
64.36000 160.174
64.40000 157.825
64.44000 165.334
64.48000 155.104
64.52000 160.290
64.56000 154.150
64.60000 162.441
64.64000 166.780
64.68000 179.277
64.72000 184.066
64.76000 173.573
64.80000 172.640
64.84000 181.538
64.88000 173.433
64.92000 178.221
64.96000 184.820
65.00000 193.275
65.04000 196.606
65.08000 190.441
65.12000 209.014
65.16000 197.680
65.20000 218.674
65.24000 214.855
65.28000 220.974
65.32000 237.673
65.36000 236.501
65.40000 247.985
65.44000 264.391
65.48000 265.932
65.52000 283.642
65.56000 308.930
65.60000 333.647
65.64000 389.481
65.68000 519.213
65.72000 830.917
65.76000 1334.115
65.80000 1750.707
65.84000 1973.955
65.88000 2045.815
65.92000 2001.824
65.96000 1687.748
66.00000 1152.929
66.04000 729.532
66.08000 503.236
66.12000 415.848
66.16000 400.658
66.20000 389.037
66.24000 415.430
66.28000 449.971
66.32000 513.476
66.36000 618.880
66.40000 655.127
66.44000 657.986
66.48000 639.651
66.52000 586.462
66.56000 481.834
66.60000 405.659
66.64000 381.998
66.68000 359.646
66.72000 362.618
66.76000 376.117
66.80000 369.625
66.84000 368.166
66.88000 360.426
66.92000 382.437
66.96000 367.372
67.00000 383.968
67.04000 378.468
67.08000 392.251
67.12000 407.914
67.16000 384.830
67.20000 399.463
67.24000 419.595
67.28000 423.957
67.32000 420.084
67.36000 422.989
67.40000 423.564
67.44000 446.722
67.48000 440.688
67.52000 444.093
67.56000 459.502
67.60000 461.971
67.64000 464.366
67.68000 468.642
67.72000 461.401
67.76000 474.636
67.80000 475.065
67.84000 498.292
67.88000 526.108
67.92000 497.668
67.96000 516.335
68.00000 519.956
68.04000 524.091
68.08000 507.988
68.12000 560.954
68.16000 546.762
68.20000 563.205
68.24000 596.744
68.28000 575.393
68.32000 599.589
68.36000 632.951
68.40000 664.150
68.44000 680.581
68.48000 668.160
68.52000 726.615
68.56000 795.483
68.60000 861.297
68.64000 993.881
68.68000 1180.888
68.72000 1357.327
68.76000 1469.443
68.80000 1664.070
68.84000 1856.779
68.88000 2262.600
68.92000 3050.767
68.96000 7927.593
69.00000 19272.654
69.04000 33378.922
69.08000 41747.074
69.12000 45175.785
69.16000 47903.281
69.20000 49207.184
69.24000 41559.773
69.28000 30078.953
69.32000 23966.420
69.36000 22188.980
69.40000 19493.398
69.44000 13185.911
69.48000 5933.832
69.52000 2569.795
69.56000 1539.301
69.60000 1169.449
69.64000 951.284
69.68000 841.487
69.72000 788.006
69.76000 705.224
69.80000 656.249
69.84000 612.936
69.88000 580.362
69.92000 560.251
69.96000 522.216
70.00000 503.100