File: XRD/XRD/07-10-2025 Dep 6/XY Data/BTO_Mapping_Theta2Theta_07-10-2025_001_36_-29-344_-6-237.xy
20.00000 491.185
20.04000 476.659
20.08000 489.534
20.12000 472.182
20.16000 455.230
20.20000 474.356
20.24000 468.304
20.28000 450.446
20.32000 449.913
20.36000 456.910
20.40000 469.625
20.44000 467.855
20.48000 460.532
20.52000 448.294
20.56000 465.481
20.60000 458.101
20.64000 463.678
20.68000 467.133
20.72000 466.639
20.76000 484.799
20.80000 482.150
20.84000 489.474
20.88000 460.872
20.92000 444.643
20.96000 476.424
21.00000 466.148
21.04000 454.774
21.08000 464.558
21.12000 478.286
21.16000 487.107
21.20000 465.507
21.24000 448.436
21.28000 469.449
21.32000 477.553
21.36000 485.062
21.40000 467.110
21.44000 461.562
21.48000 480.986
21.52000 476.507
21.56000 503.982
21.60000 469.765
21.64000 479.500
21.68000 523.122
21.72000 520.078
21.76000 550.718
21.80000 563.401
21.84000 610.843
21.88000 654.461
21.92000 684.422
21.96000 717.799
22.00000 720.222
22.04000 699.288
22.08000 708.608
22.12000 661.649
22.16000 627.053
22.20000 596.852
22.24000 567.943
22.28000 543.797
22.32000 515.081
22.36000 473.238
22.40000 463.370
22.44000 475.379
22.48000 451.546
22.52000 443.807
22.56000 462.342
22.60000 448.547
22.64000 431.422
22.68000 428.987
22.72000 433.693
22.76000 434.330
22.80000 432.485
22.84000 433.112
22.88000 431.820
22.92000 430.654
22.96000 421.254
23.00000 421.267
23.04000 432.380
23.08000 432.906
23.12000 436.918
23.16000 432.612
23.20000 444.565
23.24000 422.826
23.28000 433.944
23.32000 434.174
23.36000 425.063
23.40000 421.861
23.44000 413.416
23.48000 419.526
23.52000 438.526
23.56000 405.515
23.60000 410.278
23.64000 416.167
23.68000 436.783
23.72000 408.105
23.76000 414.709
23.80000 428.489
23.84000 413.557
23.88000 405.486
23.92000 412.519
23.96000 419.923
24.00000 405.954
24.04000 401.477
24.08000 398.355
24.12000 394.064
24.16000 399.523
24.20000 413.173
24.24000 426.086
24.28000 423.037
24.32000 404.374
24.36000 422.382
24.40000 406.461
24.44000 405.910
24.48000 408.376
24.52000 422.991
24.56000 413.717
24.60000 399.218
24.64000 404.275
24.68000 398.024
24.72000 409.173
24.76000 394.711
24.80000 407.274
24.84000 409.311
24.88000 392.238
24.92000 414.999
24.96000 401.078
25.00000 434.405
25.04000 389.431
25.08000 396.627
25.12000 402.771
25.16000 407.543
25.20000 390.956
25.24000 392.326
25.28000 382.137
25.32000 392.149
25.36000 385.706
25.40000 408.109
25.44000 377.412
25.48000 398.294
25.52000 391.836
25.56000 394.991
25.60000 389.656
25.64000 400.150
25.68000 389.222
25.72000 422.409
25.76000 398.057
25.80000 386.198
25.84000 383.706
25.88000 378.237
25.92000 383.852
25.96000 390.720
26.00000 377.982
26.04000 397.123
26.08000 376.476
26.12000 390.117
26.16000 376.843
26.20000 389.930
26.24000 376.562
26.28000 371.045
26.32000 389.910
26.36000 379.242
26.40000 393.842
26.44000 384.041
26.48000 386.526
26.52000 382.884
26.56000 393.297
26.60000 366.116
26.64000 363.870
26.68000 375.999
26.72000 379.710
26.76000 372.182
26.80000 373.458
26.84000 379.102
26.88000 359.743
26.92000 371.370
26.96000 365.324
27.00000 380.764
27.04000 365.422
27.08000 381.927
27.12000 377.411
27.16000 353.911
27.20000 385.392
27.24000 384.995
27.28000 370.585
27.32000 374.223
27.36000 382.799
27.40000 376.081
27.44000 352.139
27.48000 351.705
27.52000 365.858
27.56000 351.216
27.60000 352.575
27.64000 358.418
27.68000 367.846
27.72000 375.208
27.76000 375.886
27.80000 370.473
27.84000 381.456
27.88000 348.493
27.92000 363.748
27.96000 359.649
28.00000 368.917
28.04000 373.665
28.08000 367.966
28.12000 361.075
28.16000 372.336
28.20000 358.248
28.24000 368.857
28.28000 363.844
28.32000 362.198
28.36000 349.928
28.40000 360.763
28.44000 369.716
28.48000 357.036
28.52000 346.623
28.56000 357.712
28.60000 346.962
28.64000 371.851
28.68000 367.664
28.72000 347.166
28.76000 349.932
28.80000 363.412
28.84000 343.143
28.88000 352.357
28.92000 362.164
28.96000 357.956
29.00000 343.874
29.04000 344.106
29.08000 351.178
29.12000 352.172
29.16000 348.479
29.20000 352.640
29.24000 336.097
29.28000 344.833
29.32000 346.372
29.36000 352.605
29.40000 353.481
29.44000 347.420
29.48000 347.618
29.52000 339.620
29.56000 346.532
29.60000 351.281
29.64000 361.687
29.68000 367.731
29.72000 370.985
29.76000 372.852
29.80000 388.077
29.84000 421.159
29.88000 424.892
29.92000 437.930
29.96000 462.666
30.00000 452.983
30.04000 449.066
30.08000 436.825
30.12000 443.263
30.16000 436.821
30.20000 410.606
30.24000 406.822
30.28000 376.369
30.32000 399.867
30.36000 391.050
30.40000 394.610
30.44000 393.548
30.48000 378.412
30.52000 385.895
30.56000 371.876
30.60000 367.934
30.64000 395.306
30.68000 401.843
30.72000 410.216
30.76000 397.516
30.80000 414.005
30.84000 434.276
30.88000 458.950
30.92000 498.585
30.96000 560.389
31.00000 667.813
31.04000 835.275
31.08000 1056.811
31.12000 1298.284
31.16000 1680.377
31.20000 2046.305
31.24000 2414.018
31.28000 2762.644
31.32000 2936.248
31.36000 2960.930
31.40000 2792.599
31.44000 2489.787
31.48000 2079.762
31.52000 1654.047
31.56000 1316.781
31.60000 1012.357
31.64000 775.955
31.68000 626.908
31.72000 535.226
31.76000 466.688
31.80000 430.572
31.84000 413.163
31.88000 377.632
31.92000 353.187
31.96000 355.951
32.00000 350.314
32.04000 350.164
32.08000 339.351
32.12000 338.235
32.16000 326.131
32.20000 348.419
32.24000 331.189
32.28000 323.632
32.32000 329.275
32.36000 334.683
32.40000 320.431
32.44000 322.451
32.48000 319.535
32.52000 322.178
32.56000 306.422
32.60000 317.568
32.64000 305.545
32.68000 319.545
32.72000 296.564
32.76000 313.189
32.80000 356.057
32.84000 428.062
32.88000 513.083
32.92000 544.807
32.96000 574.497
33.00000 573.844
33.04000 542.247
33.08000 435.934
33.12000 378.097
33.16000 331.359
33.20000 320.865
33.24000 281.942
33.28000 287.981
33.32000 294.096
33.36000 303.343
33.40000 295.389
33.44000 284.777
33.48000 280.799
33.52000 283.720
33.56000 301.253
33.60000 303.043
33.64000 296.194
33.68000 276.996
33.72000 293.008
33.76000 280.148
33.80000 288.943
33.84000 281.897
33.88000 279.905
33.92000 285.312
33.96000 278.197
34.00000 284.157
34.04000 280.144
34.08000 275.354
34.12000 286.664
34.16000 288.110
34.20000 274.642
34.24000 284.029
34.28000 279.895
34.32000 279.774
34.36000 278.282
34.40000 264.722
34.44000 273.146
34.48000 281.184
34.52000 277.341
34.56000 263.877
34.60000 269.165
34.64000 263.609
34.68000 269.067
34.72000 262.965
34.76000 259.064
34.80000 277.695
34.84000 287.171
34.88000 287.868
34.92000 272.532
34.96000 269.417
35.00000 268.732
35.04000 278.671
35.08000 261.794
35.12000 276.530
35.16000 275.954
35.20000 261.371
35.24000 270.264
35.28000 253.329
35.32000 265.513
35.36000 265.831
35.40000 270.488
35.44000 265.122
35.48000 264.180
35.52000 254.660
35.56000 277.941
35.60000 260.505
35.64000 251.650
35.68000 255.177
35.72000 253.393
35.76000 243.458
35.80000 259.049
35.84000 259.855
35.88000 260.592
35.92000 253.837
35.96000 265.899
36.00000 259.954
36.04000 252.289
36.08000 259.640
36.12000 269.497
36.16000 252.736
36.20000 266.260
36.24000 259.517
36.28000 262.864
36.32000 252.147
36.36000 257.388
36.40000 235.376
36.44000 253.193
36.48000 253.849
36.52000 257.291
36.56000 250.087
36.60000 264.815
36.64000 267.617
36.68000 257.083
36.72000 256.121
36.76000 249.173
36.80000 256.159
36.84000 251.470
36.88000 253.798
36.92000 256.377
36.96000 266.063
37.00000 248.481
37.04000 256.321
37.08000 259.391
37.12000 259.944
37.16000 254.209
37.20000 260.392
37.24000 241.917
37.28000 253.126
37.32000 251.600
37.36000 254.133
37.40000 253.113
37.44000 244.918
37.48000 246.455
37.52000 254.166
37.56000 242.816
37.60000 254.121
37.64000 243.752
37.68000 244.109
37.72000 244.849
37.76000 244.688
37.80000 242.410
37.84000 237.648
37.88000 257.946
37.92000 244.046
37.96000 233.501
38.00000 253.409
38.04000 245.776
38.08000 260.569
38.12000 248.058
38.16000 255.243
38.20000 287.238
38.24000 274.859
38.28000 283.609
38.32000 294.386
38.36000 314.016
38.40000 363.279
38.44000 393.790
38.48000 434.754
38.52000 499.617
38.56000 509.281
38.60000 557.055
38.64000 564.119
38.68000 585.542
38.72000 534.578
38.76000 521.289
38.80000 497.813
38.84000 444.809
38.88000 392.492
38.92000 353.016
38.96000 314.186
39.00000 293.958
39.04000 270.766
39.08000 261.639
39.12000 250.237
39.16000 229.100
39.20000 232.719
39.24000 234.230
39.28000 229.381
39.32000 235.135
39.36000 237.174
39.40000 233.442
39.44000 232.955
39.48000 232.336
39.52000 233.198
39.56000 240.522
39.60000 232.440
39.64000 210.920
39.68000 222.151
39.72000 232.093
39.76000 219.766
39.80000 236.779
39.84000 226.494
39.88000 228.815
39.92000 218.619
39.96000 213.480
40.00000 217.404
40.04000 214.872
40.08000 222.810
40.12000 224.378
40.16000 216.773
40.20000 233.870
40.24000 222.105
40.28000 224.577
40.32000 223.553
40.36000 207.839
40.40000 209.335
40.44000 212.494
40.48000 211.555
40.52000 215.158
40.56000 213.514
40.60000 210.974
40.64000 203.002
40.68000 232.652
40.72000 210.565
40.76000 202.715
40.80000 210.633
40.84000 207.071
40.88000 207.643
40.92000 211.056
40.96000 203.038
41.00000 219.135
41.04000 209.845
41.08000 235.772
41.12000 206.402
41.16000 204.849
41.20000 212.239
41.24000 218.840
41.28000 208.562
41.32000 199.873
41.36000 203.272
41.40000 182.869
41.44000 203.481
41.48000 201.133
41.52000 209.104
41.56000 209.651
41.60000 209.421
41.64000 210.659
41.68000 213.606
41.72000 206.093
41.76000 207.149
41.80000 202.478
41.84000 204.158
41.88000 214.626
41.92000 197.304
41.96000 193.352
42.00000 216.445
42.04000 214.640
42.08000 193.835
42.12000 196.356
42.16000 193.144
42.20000 194.981
42.24000 207.789
42.28000 186.210
42.32000 195.054
42.36000 196.800
42.40000 191.186
42.44000 197.194
42.48000 203.344
42.52000 186.903
42.56000 197.567
42.60000 205.868
42.64000 190.073
42.68000 189.573
42.72000 205.574
42.76000 196.220
42.80000 201.168
42.84000 207.204
42.88000 198.409
42.92000 206.741
42.96000 205.509
43.00000 212.729
43.04000 195.690
43.08000 197.667
43.12000 194.223
43.16000 195.917
43.20000 191.213
43.24000 197.595
43.28000 198.768
43.32000 192.830
43.36000 193.567
43.40000 195.768
43.44000 199.010
43.48000 205.711
43.52000 182.259
43.56000 193.343
43.60000 198.219
43.64000 203.275
43.68000 194.784
43.72000 199.390
43.76000 198.473
43.80000 189.462
43.84000 197.353
43.88000 191.316
43.92000 202.711
43.96000 200.128
44.00000 189.589
44.04000 189.622
44.08000 178.725
44.12000 198.777
44.16000 199.133
44.20000 196.565
44.24000 201.831
44.28000 206.296
44.32000 206.796
44.36000 200.431
44.40000 211.626
44.44000 212.154
44.48000 228.953
44.52000 219.435
44.56000 249.088
44.60000 248.953
44.64000 268.781
44.68000 273.136
44.72000 309.458
44.76000 330.740
44.80000 358.251
44.84000 371.580
44.88000 398.220
44.92000 391.514
44.96000 417.522
45.00000 424.668
45.04000 393.155
45.08000 385.603
45.12000 361.804
45.16000 347.852
45.20000 332.305
45.24000 310.284
45.28000 291.844
45.32000 279.897
45.36000 279.714
45.40000 254.525
45.44000 244.887
45.48000 227.052
45.52000 227.470
45.56000 234.201
45.60000 217.189
45.64000 199.390
45.68000 201.536
45.72000 203.606
45.76000 198.787
45.80000 187.039
45.84000 199.317
45.88000 184.881
45.92000 187.569
45.96000 191.976
46.00000 187.882
46.04000 189.980
46.08000 184.646
46.12000 199.359
46.16000 181.859
46.20000 177.252
46.24000 191.623
46.28000 173.631
46.32000 170.358
46.36000 172.338
46.40000 168.592
46.44000 171.684
46.48000 163.499
46.52000 172.436
46.56000 163.177
46.60000 171.264
46.64000 179.608
46.68000 175.911
46.72000 174.932
46.76000 168.725
46.80000 184.259
46.84000 171.386
46.88000 175.003
46.92000 168.557
46.96000 172.407
47.00000 172.469
47.04000 163.744
47.08000 168.090
47.12000 168.809
47.16000 162.745
47.20000 159.470
47.24000 164.920
47.28000 175.109
47.32000 161.250
47.36000 156.954
47.40000 164.801
47.44000 168.260
47.48000 157.265
47.52000 151.609
47.56000 153.094
47.60000 156.432
47.64000 153.073
47.68000 156.344
47.72000 165.310
47.76000 150.095
47.80000 166.084
47.84000 159.323
47.88000 155.991
47.92000 160.065
47.96000 164.547
48.00000 155.776
48.04000 145.544
48.08000 162.900
48.12000 157.167
48.16000 150.611
48.20000 158.510
48.24000 174.351
48.28000 163.431
48.32000 163.477
48.36000 156.562
48.40000 154.021
48.44000 160.362
48.48000 146.934
48.52000 151.930
48.56000 149.874
48.60000 155.448
48.64000 159.010
48.68000 162.460
48.72000 154.483
48.76000 143.470
48.80000 152.543
48.84000 155.179
48.88000 151.076
48.92000 155.562
48.96000 152.883
49.00000 160.410
49.04000 162.937
49.08000 156.429
49.12000 153.607
49.16000 144.041
49.20000 157.647
49.24000 153.224
49.28000 146.156
49.32000 146.995
49.36000 160.387
49.40000 151.702
49.44000 143.707
49.48000 154.924
49.52000 147.689
49.56000 144.249
49.60000 136.941
49.64000 159.144
49.68000 154.854
49.72000 163.068
49.76000 151.106
49.80000 150.703
49.84000 154.439
49.88000 149.527
49.92000 162.920
49.96000 157.908
50.00000 159.597
50.04000 156.782
50.08000 154.464
50.12000 171.126
50.16000 173.671
50.20000 182.383
50.24000 175.725
50.28000 185.723
50.32000 201.744
50.36000 208.814
50.40000 207.948
50.44000 212.160
50.48000 215.473
50.52000 216.875
50.56000 232.928
50.60000 243.372
50.64000 239.497
50.68000 230.944
50.72000 227.637
50.76000 217.015
50.80000 214.149
50.84000 193.630
50.88000 189.865
50.92000 177.354
50.96000 190.505
51.00000 176.812
51.04000 157.409
51.08000 161.545
51.12000 144.694
51.16000 169.766
51.20000 154.461
51.24000 162.153
51.28000 141.148
51.32000 152.221
51.36000 151.776
51.40000 149.613
51.44000 140.440
51.48000 141.451
51.52000 148.975
51.56000 144.192
51.60000 143.590
51.64000 144.016
51.68000 138.131
51.72000 143.772
51.76000 141.147
51.80000 141.948
51.84000 137.825
51.88000 132.766
51.92000 138.207
51.96000 147.744
52.00000 148.039
52.04000 136.404
52.08000 142.556
52.12000 131.524
52.16000 145.525
52.20000 142.543
52.24000 135.907
52.28000 148.983
52.32000 136.323
52.36000 141.007
52.40000 146.662
52.44000 134.810
52.48000 142.577
52.52000 139.887
52.56000 140.816
52.60000 150.344
52.64000 131.469
52.68000 141.172
52.72000 152.760
52.76000 136.250
52.80000 142.579
52.84000 144.500
52.88000 132.452
52.92000 130.267
52.96000 141.480
53.00000 152.181
53.04000 142.676
53.08000 137.719
53.12000 143.291
53.16000 149.794
53.20000 144.193
53.24000 156.790
53.28000 154.884
53.32000 143.619
53.36000 150.142
53.40000 145.357
53.44000 143.316
53.48000 139.174
53.52000 149.117
53.56000 139.707
53.60000 139.259
53.64000 145.843
53.68000 140.491
53.72000 131.508
53.76000 139.681
53.80000 143.186
53.84000 144.931
53.88000 142.717
53.92000 136.248
53.96000 125.554
54.00000 137.990
54.04000 139.922
54.08000 129.859
54.12000 137.980
54.16000 135.196
54.20000 139.024
54.24000 138.946
54.28000 130.890
54.32000 137.258
54.36000 153.618
54.40000 144.406
54.44000 131.863
54.48000 139.898
54.52000 128.620
54.56000 142.295
54.60000 137.760
54.64000 140.429
54.68000 139.457
54.72000 133.166
54.76000 142.994
54.80000 135.529
54.84000 131.490
54.88000 141.528
54.92000 142.658
54.96000 148.457
55.00000 152.806
55.04000 161.373
55.08000 142.829
55.12000 155.906
55.16000 153.133
55.20000 143.801
55.24000 159.551
55.28000 169.154
55.32000 179.564
55.36000 196.197
55.40000 210.623
55.44000 227.666
55.48000 266.740
55.52000 285.151
55.56000 322.121
55.60000 359.847
55.64000 400.973
55.68000 433.083
55.72000 482.665
55.76000 486.725
55.80000 530.270
55.84000 561.673
55.88000 528.931
55.92000 497.777
55.96000 500.017
56.00000 446.826
56.04000 417.447
56.08000 378.840
56.12000 342.563
56.16000 302.344
56.20000 263.886
56.24000 244.770
56.28000 220.243
56.32000 200.866
56.36000 189.380
56.40000 172.444
56.44000 168.696
56.48000 153.524
56.52000 143.971
56.56000 142.415
56.60000 143.586
56.64000 144.245
56.68000 128.590
56.72000 127.735
56.76000 135.925
56.80000 133.477
56.84000 129.918
56.88000 119.832
56.92000 128.721
56.96000 139.040
57.00000 125.701
57.04000 131.624
57.08000 132.833
57.12000 122.888
57.16000 125.628
57.20000 119.561
57.24000 131.951
57.28000 133.736
57.32000 133.378
57.36000 128.253
57.40000 130.110
57.44000 131.637
57.48000 128.935
57.52000 119.369
57.56000 119.495
57.60000 124.028
57.64000 128.426
57.68000 116.633
57.72000 118.578
57.76000 122.696
57.80000 111.888
57.84000 127.493
57.88000 121.520
57.92000 121.302
57.96000 124.507
58.00000 125.278
58.04000 124.685
58.08000 124.806
58.12000 121.899
58.16000 119.587
58.20000 131.652
58.24000 121.575
58.28000 120.149
58.32000 105.257
58.36000 123.634
58.40000 118.315
58.44000 118.126
58.48000 119.029
58.52000 114.852
58.56000 117.345
58.60000 122.725
58.64000 119.777
58.68000 115.423
58.72000 121.069
58.76000 117.650
58.80000 125.547
58.84000 120.110
58.88000 124.882
58.92000 120.872
58.96000 121.468
59.00000 112.230
59.04000 115.763
59.08000 112.801
59.12000 110.602
59.16000 116.179
59.20000 110.801
59.24000 116.900
59.28000 121.937
59.32000 107.458
59.36000 115.610
59.40000 121.082
59.44000 116.852
59.48000 106.023
59.52000 118.506
59.56000 109.661
59.60000 123.965
59.64000 116.258
59.68000 114.660
59.72000 120.071
59.76000 110.859
59.80000 119.587
59.84000 119.209
59.88000 109.240
59.92000 115.498
59.96000 118.602
60.00000 115.651
60.04000 119.309
60.08000 118.994
60.12000 116.683
60.16000 115.818
60.20000 117.990
60.24000 109.739
60.28000 114.812
60.32000 115.009
60.36000 117.423
60.40000 115.749
60.44000 118.033
60.48000 111.755
60.52000 128.023
60.56000 114.241
60.60000 127.273
60.64000 116.857
60.68000 120.120
60.72000 117.244
60.76000 120.620
60.80000 115.935
60.84000 114.241
60.88000 112.460
60.92000 121.510
60.96000 112.186
61.00000 119.082
61.04000 121.964
61.08000 117.365
61.12000 126.542
61.16000 118.907
61.20000 126.134
61.24000 119.775
61.28000 129.573
61.32000 114.876
61.36000 125.129
61.40000 118.164
61.44000 138.714
61.48000 139.795
61.52000 162.797
61.56000 241.991
61.60000 290.403
61.64000 322.018
61.68000 340.196
61.72000 349.184
61.76000 302.860
61.80000 244.519
61.84000 185.191
61.88000 162.409
61.92000 141.094
61.96000 129.750
62.00000 133.246
62.04000 125.957
62.08000 126.456
62.12000 134.243
62.16000 135.804
62.20000 134.813
62.24000 141.248
62.28000 126.758
62.32000 128.305
62.36000 128.787
62.40000 144.441
62.44000 132.825
62.48000 132.720
62.52000 130.795
62.56000 127.368
62.60000 118.380
62.64000 129.998
62.68000 130.753
62.72000 132.396
62.76000 139.021
62.80000 129.573
62.84000 133.879
62.88000 135.847
62.92000 125.356
62.96000 137.044
63.00000 133.315
63.04000 136.294
63.08000 132.500
63.12000 130.954
63.16000 131.800
63.20000 144.749
63.24000 135.370
63.28000 126.514
63.32000 137.155
63.36000 138.826
63.40000 135.154
63.44000 137.581
63.48000 134.910
63.52000 137.713
63.56000 138.862
63.60000 137.661
63.64000 136.842
63.68000 139.226
63.72000 151.049
63.76000 142.572
63.80000 146.857
63.84000 137.056
63.88000 137.637
63.92000 135.511
63.96000 152.149
64.00000 144.518
64.04000 153.974
64.08000 154.132
64.12000 146.535
64.16000 144.101
64.20000 146.683
64.24000 148.398
64.28000 153.567
64.32000 158.675
64.36000 164.448
64.40000 153.716
64.44000 163.031
64.48000 163.092
64.52000 165.204
64.56000 165.116
64.60000 161.726
64.64000 169.923
64.68000 170.334
64.72000 187.108
64.76000 181.541
64.80000 186.766
64.84000 203.138
64.88000 198.973
64.92000 203.869
64.96000 209.805
65.00000 235.418
65.04000 238.095
65.08000 244.818
65.12000 260.300
65.16000 287.698
65.20000 295.784
65.24000 311.560
65.28000 307.043
65.32000 347.464
65.36000 357.727
65.40000 382.968
65.44000 395.679
65.48000 419.376
65.52000 418.907
65.56000 469.997
65.60000 518.440
65.64000 600.619
65.68000 800.140
65.72000 1261.953
65.76000 1863.101
65.80000 2371.120
65.84000 2536.766
65.88000 2565.011
65.92000 2394.661
65.96000 1879.369
66.00000 1233.189
66.04000 756.789
66.08000 538.426
66.12000 483.655
66.16000 455.608
66.20000 426.391
66.24000 465.844
66.28000 539.298
66.32000 648.288
66.36000 713.570
66.40000 740.063
66.44000 750.461
66.48000 720.190
66.52000 613.217
66.56000 518.787
66.60000 445.198
66.64000 406.168
66.68000 402.180
66.72000 399.805
66.76000 395.246
66.80000 382.160
66.84000 368.452
66.88000 392.731
66.92000 404.054
66.96000 388.272
67.00000 436.094
67.04000 426.173
67.08000 419.923
67.12000 418.783
67.16000 433.039
67.20000 433.636
67.24000 418.931
67.28000 423.631
67.32000 433.554
67.36000 426.316
67.40000 444.949
67.44000 450.268
67.48000 472.557
67.52000 470.418
67.56000 481.742
67.60000 470.962
67.64000 471.216
67.68000 471.053
67.72000 469.322
67.76000 482.402
67.80000 495.645
67.84000 510.890
67.88000 501.968
67.92000 529.495
67.96000 550.010
68.00000 555.133
68.04000 543.956
68.08000 560.948
68.12000 580.058
68.16000 590.374
68.20000 595.255
68.24000 605.003
68.28000 612.349
68.32000 648.383
68.36000 686.380
68.40000 693.591
68.44000 713.881
68.48000 762.709
68.52000 809.660
68.56000 876.012
68.60000 961.302
68.64000 1128.197
68.68000 1309.812
68.72000 1619.350
68.76000 1835.746
68.80000 2071.523
68.84000 2525.067
68.88000 3301.529
68.92000 5454.420
68.96000 14457.800
69.00000 30307.619
69.04000 45492.191
69.08000 53343.645
69.12000 56887.590
69.16000 60015.031
69.20000 57400.238
69.24000 45932.469
69.28000 34530.898
69.32000 28769.371
69.36000 26228.139
69.40000 20833.816
69.44000 12818.870
69.48000 5835.573
69.52000 2510.919
69.56000 1618.194
69.60000 1217.270
69.64000 1024.805
69.68000 897.777
69.72000 827.680
69.76000 746.928
69.80000 672.828
69.84000 634.516
69.88000 604.963
69.92000 572.826
69.96000 540.329
70.00000 526.940