File: XRD/XRD/07-10-2025 Dep 6/XY Data/BTO_Mapping_Theta2Theta_07-10-2025_001_11_13-383_14-863.xy
20.00000 487.687
20.04000 468.012
20.08000 476.993
20.12000 457.125
20.16000 454.043
20.20000 464.164
20.24000 462.936
20.28000 456.916
20.32000 455.798
20.36000 471.038
20.40000 462.571
20.44000 467.153
20.48000 473.377
20.52000 463.313
20.56000 474.221
20.60000 467.318
20.64000 455.998
20.68000 471.987
20.72000 465.054
20.76000 445.050
20.80000 440.319
20.84000 465.643
20.88000 458.106
20.92000 454.620
20.96000 472.928
21.00000 476.867
21.04000 477.493
21.08000 460.408
21.12000 451.505
21.16000 455.143
21.20000 458.521
21.24000 445.963
21.28000 465.030
21.32000 460.879
21.36000 474.273
21.40000 468.691
21.44000 454.154
21.48000 453.068
21.52000 451.259
21.56000 475.725
21.60000 455.661
21.64000 474.382
21.68000 472.616
21.72000 470.700
21.76000 492.397
21.80000 482.140
21.84000 489.306
21.88000 474.064
21.92000 494.780
21.96000 486.246
22.00000 498.112
22.04000 480.085
22.08000 479.735
22.12000 495.383
22.16000 517.681
22.20000 494.254
22.24000 494.461
22.28000 468.779
22.32000 481.769
22.36000 460.464
22.40000 459.487
22.44000 462.645
22.48000 463.733
22.52000 462.997
22.56000 448.279
22.60000 449.013
22.64000 448.645
22.68000 450.839
22.72000 429.863
22.76000 455.578
22.80000 439.307
22.84000 442.264
22.88000 453.632
22.92000 433.112
22.96000 421.290
23.00000 436.037
23.04000 444.889
23.08000 439.875
23.12000 432.639
23.16000 442.881
23.20000 435.933
23.24000 434.503
23.28000 434.373
23.32000 432.353
23.36000 435.409
23.40000 432.067
23.44000 446.267
23.48000 441.394
23.52000 435.161
23.56000 466.637
23.60000 449.782
23.64000 441.694
23.68000 442.290
23.72000 462.556
23.76000 466.574
23.80000 473.416
23.84000 487.918
23.88000 490.270
23.92000 499.410
23.96000 511.660
24.00000 500.248
24.04000 504.695
24.08000 504.245
24.12000 479.514
24.16000 484.196
24.20000 449.297
24.24000 440.718
24.28000 450.528
24.32000 430.089
24.36000 443.460
24.40000 442.321
24.44000 433.864
24.48000 441.654
24.52000 420.251
24.56000 430.479
24.60000 427.076
24.64000 405.974
24.68000 384.953
24.72000 409.601
24.76000 412.158
24.80000 404.946
24.84000 398.828
24.88000 417.019
24.92000 397.225
24.96000 397.323
25.00000 414.963
25.04000 407.541
25.08000 415.380
25.12000 412.946
25.16000 391.631
25.20000 406.816
25.24000 398.193
25.28000 391.849
25.32000 405.548
25.36000 403.988
25.40000 399.545
25.44000 404.638
25.48000 397.602
25.52000 412.882
25.56000 393.308
25.60000 384.081
25.64000 393.794
25.68000 380.316
25.72000 393.481
25.76000 387.722
25.80000 381.286
25.84000 379.015
25.88000 378.785
25.92000 404.830
25.96000 383.765
26.00000 390.179
26.04000 399.614
26.08000 402.200
26.12000 393.470
26.16000 399.723
26.20000 389.731
26.24000 385.636
26.28000 384.279
26.32000 373.349
26.36000 388.624
26.40000 371.736
26.44000 387.132
26.48000 385.073
26.52000 365.102
26.56000 380.796
26.60000 382.228
26.64000 376.859
26.68000 382.471
26.72000 371.999
26.76000 379.584
26.80000 387.556
26.84000 380.783
26.88000 370.212
26.92000 375.411
26.96000 380.317
27.00000 372.134
27.04000 386.531
27.08000 378.445
27.12000 374.475
27.16000 372.741
27.20000 374.760
27.24000 375.330
27.28000 386.184
27.32000 388.171
27.36000 387.818
27.40000 367.404
27.44000 361.809
27.48000 360.159
27.52000 377.135
27.56000 362.002
27.60000 379.691
27.64000 374.813
27.68000 362.587
27.72000 361.685
27.76000 362.907
27.80000 354.012
27.84000 363.902
27.88000 358.483
27.92000 374.212
27.96000 360.399
28.00000 369.237
28.04000 347.527
28.08000 365.449
28.12000 365.558
28.16000 359.775
28.20000 358.391
28.24000 359.628
28.28000 356.319
28.32000 367.306
28.36000 366.830
28.40000 366.570
28.44000 365.671
28.48000 359.661
28.52000 362.944
28.56000 365.631
28.60000 359.449
28.64000 363.273
28.68000 347.950
28.72000 341.869
28.76000 355.653
28.80000 352.905
28.84000 366.966
28.88000 372.029
28.92000 351.024
28.96000 345.812
29.00000 370.362
29.04000 353.190
29.08000 358.975
29.12000 365.125
29.16000 342.564
29.20000 346.922
29.24000 333.699
29.28000 351.781
29.32000 341.934
29.36000 364.327
29.40000 373.833
29.44000 353.316
29.48000 363.867
29.52000 352.134
29.56000 369.029
29.60000 350.257
29.64000 348.562
29.68000 361.874
29.72000 370.249
29.76000 344.123
29.80000 367.463
29.84000 364.200
29.88000 364.990
29.92000 375.296
29.96000 365.046
30.00000 378.296
30.04000 385.607
30.08000 367.463
30.12000 375.780
30.16000 379.326
30.20000 354.621
30.24000 380.558
30.28000 378.570
30.32000 360.448
30.36000 364.756
30.40000 359.363
30.44000 376.039
30.48000 368.547
30.52000 369.439
30.56000 369.541
30.60000 352.937
30.64000 360.327
30.68000 380.500
30.72000 379.965
30.76000 391.115
30.80000 374.366
30.84000 382.551
30.88000 396.970
30.92000 428.108
30.96000 431.325
31.00000 448.576
31.04000 484.109
31.08000 505.546
31.12000 611.936
31.16000 665.085
31.20000 726.921
31.24000 807.274
31.28000 892.143
31.32000 975.993
31.36000 1017.411
31.40000 1019.037
31.44000 1025.163
31.48000 943.410
31.52000 831.677
31.56000 743.180
31.60000 664.752
31.64000 599.533
31.68000 532.040
31.72000 486.396
31.76000 447.803
31.80000 434.798
31.84000 420.217
31.88000 389.651
31.92000 388.139
31.96000 357.438
32.00000 367.629
32.04000 348.126
32.08000 360.601
32.12000 344.153
32.16000 341.783
32.20000 344.619
32.24000 317.776
32.28000 345.163
32.32000 338.915
32.36000 345.630
32.40000 340.774
32.44000 344.311
32.48000 323.026
32.52000 335.786
32.56000 337.243
32.60000 317.835
32.64000 331.737
32.68000 313.575
32.72000 314.863
32.76000 330.737
32.80000 352.731
32.84000 407.728
32.88000 456.100
32.92000 488.703
32.96000 537.278
33.00000 541.071
33.04000 534.648
33.08000 471.425
33.12000 394.081
33.16000 348.991
33.20000 305.116
33.24000 299.060
33.28000 296.417
33.32000 303.214
33.36000 290.812
33.40000 284.187
33.44000 298.315
33.48000 312.737
33.52000 282.101
33.56000 285.254
33.60000 287.235
33.64000 306.340
33.68000 305.263
33.72000 294.192
33.76000 283.818
33.80000 284.336
33.84000 298.297
33.88000 303.233
33.92000 290.086
33.96000 308.345
34.00000 307.513
34.04000 291.502
34.08000 306.536
34.12000 307.197
34.16000 332.650
34.20000 315.537
34.24000 307.722
34.28000 324.855
34.32000 315.019
34.36000 319.272
34.40000 323.935
34.44000 304.459
34.48000 310.814
34.52000 316.780
34.56000 320.921
34.60000 306.485
34.64000 297.353
34.68000 297.413
34.72000 286.172
34.76000 272.032
34.80000 287.248
34.84000 282.120
34.88000 275.995
34.92000 282.637
34.96000 263.565
35.00000 278.440
35.04000 262.104
35.08000 263.970
35.12000 279.913
35.16000 264.481
35.20000 267.312
35.24000 255.759
35.28000 263.850
35.32000 252.506
35.36000 258.649
35.40000 248.674
35.44000 253.067
35.48000 266.422
35.52000 266.837
35.56000 268.996
35.60000 261.600
35.64000 272.497
35.68000 266.554
35.72000 256.299
35.76000 260.107
35.80000 254.824
35.84000 252.865
35.88000 252.529
35.92000 261.472
35.96000 256.799
36.00000 253.867
36.04000 254.725
36.08000 266.604
36.12000 252.893
36.16000 252.427
36.20000 249.234
36.24000 263.846
36.28000 252.032
36.32000 258.114
36.36000 261.831
36.40000 254.801
36.44000 251.036
36.48000 249.295
36.52000 253.241
36.56000 265.798
36.60000 258.551
36.64000 260.525
36.68000 250.660
36.72000 253.014
36.76000 255.325
36.80000 250.971
36.84000 274.151
36.88000 252.794
36.92000 260.360
36.96000 256.926
37.00000 265.221
37.04000 250.041
37.08000 258.069
37.12000 268.545
37.16000 266.414
37.20000 256.348
37.24000 260.349
37.28000 249.055
37.32000 248.910
37.36000 248.309
37.40000 242.666
37.44000 255.428
37.48000 257.427
37.52000 251.539
37.56000 252.475
37.60000 254.399
37.64000 265.255
37.68000 245.306
37.72000 255.085
37.76000 254.210
37.80000 252.387
37.84000 245.475
37.88000 253.198
37.92000 252.658
37.96000 250.794
38.00000 257.480
38.04000 244.223
38.08000 248.782
38.12000 255.958
38.16000 248.247
38.20000 255.630
38.24000 251.024
38.28000 274.106
38.32000 274.561
38.36000 294.252
38.40000 294.777
38.44000 346.292
38.48000 401.591
38.52000 448.941
38.56000 512.829
38.60000 585.567
38.64000 638.630
38.68000 684.175
38.72000 684.964
38.76000 675.850
38.80000 650.339
38.84000 568.523
38.88000 501.952
38.92000 425.616
38.96000 367.584
39.00000 302.132
39.04000 282.197
39.08000 266.802
39.12000 260.040
39.16000 247.079
39.20000 233.612
39.24000 243.703
39.28000 235.041
39.32000 239.003
39.36000 233.164
39.40000 247.934
39.44000 241.959
39.48000 239.690
39.52000 231.284
39.56000 233.964
39.60000 239.046
39.64000 242.509
39.68000 227.179
39.72000 226.920
39.76000 223.696
39.80000 233.781
39.84000 232.372
39.88000 235.290
39.92000 250.593
39.96000 236.371
40.00000 227.590
40.04000 223.688
40.08000 226.852
40.12000 215.053
40.16000 228.827
40.20000 214.071
40.24000 224.191
40.28000 227.389
40.32000 229.859
40.36000 225.494
40.40000 211.167
40.44000 224.883
40.48000 207.959
40.52000 220.969
40.56000 213.901
40.60000 206.944
40.64000 218.194
40.68000 208.778
40.72000 217.377
40.76000 218.885
40.80000 221.738
40.84000 220.876
40.88000 209.670
40.92000 202.564
40.96000 218.962
41.00000 222.089
41.04000 199.436
41.08000 201.047
41.12000 200.714
41.16000 202.306
41.20000 208.993
41.24000 210.429
41.28000 205.522
41.32000 215.878
41.36000 211.567
41.40000 213.145
41.44000 207.385
41.48000 206.691
41.52000 205.020
41.56000 203.186
41.60000 211.592
41.64000 195.319
41.68000 208.300
41.72000 205.354
41.76000 207.822
41.80000 213.509
41.84000 208.811
41.88000 201.875
41.92000 207.962
41.96000 211.410
42.00000 213.127
42.04000 211.849
42.08000 219.237
42.12000 217.435
42.16000 223.620
42.20000 222.356
42.24000 214.781
42.28000 224.512
42.32000 220.453
42.36000 213.723
42.40000 222.896
42.44000 213.288
42.48000 205.636
42.52000 211.620
42.56000 219.966
42.60000 229.074
42.64000 196.369
42.68000 201.947
42.72000 213.570
42.76000 197.400
42.80000 205.363
42.84000 196.402
42.88000 194.404
42.92000 214.787
42.96000 198.516
43.00000 206.837
43.04000 199.362
43.08000 187.287
43.12000 195.062
43.16000 204.334
43.20000 191.277
43.24000 196.761
43.28000 194.439
43.32000 198.935
43.36000 202.391
43.40000 202.422
43.44000 196.416
43.48000 197.461
43.52000 184.440
43.56000 206.027
43.60000 182.436
43.64000 188.790
43.68000 188.715
43.72000 181.761
43.76000 190.755
43.80000 193.114
43.84000 207.481
43.88000 189.914
43.92000 186.930
43.96000 191.460
44.00000 195.549
44.04000 188.939
44.08000 194.860
44.12000 189.787
44.16000 198.928
44.20000 187.476
44.24000 187.469
44.28000 188.171
44.32000 195.271
44.36000 203.239
44.40000 203.219
44.44000 199.664
44.48000 203.309
44.52000 203.262
44.56000 206.222
44.60000 216.336
44.64000 218.136
44.68000 212.997
44.72000 219.352
44.76000 208.449
44.80000 214.301
44.84000 206.167
44.88000 219.675
44.92000 231.989
44.96000 218.001
45.00000 224.553
45.04000 208.596
45.08000 221.139
45.12000 219.797
45.16000 226.420
45.20000 225.418
45.24000 215.357
45.28000 219.092
45.32000 217.777
45.36000 216.639
45.40000 206.465
45.44000 209.385
45.48000 208.442
45.52000 199.218
45.56000 191.696
45.60000 189.749
45.64000 187.480
45.68000 185.590
45.72000 194.242
45.76000 194.612
45.80000 182.493
45.84000 191.854
45.88000 186.378
45.92000 178.230
45.96000 176.986
46.00000 172.430
46.04000 165.776
46.08000 181.155
46.12000 175.260
46.16000 172.235
46.20000 169.499
46.24000 165.796
46.28000 163.097
46.32000 171.507
46.36000 174.729
46.40000 174.532
46.44000 172.326
46.48000 182.036
46.52000 172.152
46.56000 161.490
46.60000 170.058
46.64000 174.680
46.68000 171.423
46.72000 166.417
46.76000 184.182
46.80000 185.420
46.84000 180.659
46.88000 167.046
46.92000 171.172
46.96000 166.048
47.00000 163.463
47.04000 160.478
47.08000 167.893
47.12000 160.271
47.16000 173.211
47.20000 167.360
47.24000 161.253
47.28000 161.771
47.32000 165.262
47.36000 158.114
47.40000 164.290
47.44000 159.269
47.48000 160.844
47.52000 170.148
47.56000 168.239
47.60000 164.060
47.64000 158.953
47.68000 155.966
47.72000 145.391
47.76000 170.018
47.80000 161.752
47.84000 165.872
47.88000 168.127
47.92000 161.706
47.96000 160.835
48.00000 159.619
48.04000 160.326
48.08000 158.778
48.12000 163.407
48.16000 165.831
48.20000 161.189
48.24000 152.444
48.28000 153.909
48.32000 170.775
48.36000 155.335
48.40000 151.690
48.44000 169.725
48.48000 166.138
48.52000 160.989
48.56000 158.991
48.60000 161.423
48.64000 149.632
48.68000 151.143
48.72000 156.760
48.76000 166.510
48.80000 173.058
48.84000 151.147
48.88000 154.098
48.92000 156.465
48.96000 149.714
49.00000 151.932
49.04000 158.080
49.08000 169.001
49.12000 154.949
49.16000 151.303
49.20000 146.529
49.24000 150.835
49.28000 159.544
49.32000 153.606
49.36000 152.812
49.40000 148.956
49.44000 154.620
49.48000 145.144
49.52000 148.780
49.56000 167.554
49.60000 144.258
49.64000 146.557
49.68000 152.594
49.72000 161.538
49.76000 151.615
49.80000 146.618
49.84000 154.096
49.88000 144.567
49.92000 162.525
49.96000 147.864
50.00000 151.022
50.04000 145.001
50.08000 152.504
50.12000 145.337
50.16000 148.434
50.20000 136.957
50.24000 153.322
50.28000 162.441
50.32000 164.565
50.36000 156.584
50.40000 160.464
50.44000 156.771
50.48000 162.708
50.52000 165.246
50.56000 158.433
50.60000 168.102
50.64000 147.963
50.68000 165.578
50.72000 163.988
50.76000 170.886
50.80000 163.600
50.84000 161.762
50.88000 159.319
50.92000 152.268
50.96000 149.760
51.00000 146.897
51.04000 148.154
51.08000 152.176
51.12000 155.670
51.16000 147.384
51.20000 142.158
51.24000 141.642
51.28000 148.017
51.32000 146.498
51.36000 136.840
51.40000 147.998
51.44000 144.568
51.48000 137.819
51.52000 138.630
51.56000 145.714
51.60000 142.982
51.64000 143.144
51.68000 156.224
51.72000 146.329
51.76000 136.544
51.80000 145.461
51.84000 143.803
51.88000 144.342
51.92000 142.362
51.96000 137.778
52.00000 136.749
52.04000 137.973
52.08000 133.347
52.12000 144.179
52.16000 142.372
52.20000 138.151
52.24000 133.261
52.28000 137.049
52.32000 136.446
52.36000 130.816
52.40000 138.111
52.44000 133.944
52.48000 139.620
52.52000 128.176
52.56000 132.562
52.60000 144.467
52.64000 155.214
52.68000 146.387
52.72000 146.379
52.76000 142.342
52.80000 142.902
52.84000 133.639
52.88000 133.698
52.92000 122.598
52.96000 138.043
53.00000 134.443
53.04000 133.015
53.08000 145.110
53.12000 150.082
53.16000 146.636
53.20000 147.535
53.24000 144.149
53.28000 143.767
53.32000 152.590
53.36000 148.413
53.40000 154.778
53.44000 140.689
53.48000 142.868
53.52000 148.473
53.56000 137.825
53.60000 142.206
53.64000 142.560
53.68000 141.883
53.72000 139.055
53.76000 144.884
53.80000 138.581
53.84000 150.574
53.88000 135.922
53.92000 141.369
53.96000 141.080
54.00000 145.859
54.04000 139.287
54.08000 132.827
54.12000 134.958
54.16000 131.207
54.20000 143.479
54.24000 140.735
54.28000 137.957
54.32000 139.285
54.36000 141.296
54.40000 136.410
54.44000 135.376
54.48000 138.360
54.52000 142.387
54.56000 139.637
54.60000 140.205
54.64000 147.390
54.68000 137.721
54.72000 140.980
54.76000 143.273
54.80000 131.354
54.84000 137.237
54.88000 130.053
54.92000 143.970
54.96000 143.011
55.00000 141.875
55.04000 143.969
55.08000 145.820
55.12000 148.995
55.16000 156.903
55.20000 137.799
55.24000 146.335
55.28000 158.893
55.32000 164.416
55.36000 165.273
55.40000 165.789
55.44000 166.360
55.48000 182.204
55.52000 202.826
55.56000 199.918
55.60000 211.225
55.64000 226.611
55.68000 233.006
55.72000 263.172
55.76000 278.207
55.80000 299.055
55.84000 320.794
55.88000 345.173
55.92000 337.021
55.96000 363.971
56.00000 331.371
56.04000 336.795
56.08000 317.954
56.12000 296.665
56.16000 270.435
56.20000 261.232
56.24000 241.533
56.28000 221.034
56.32000 192.140
56.36000 174.083
56.40000 185.278
56.44000 180.781
56.48000 165.169
56.52000 153.683
56.56000 154.480
56.60000 148.213
56.64000 146.035
56.68000 140.517
56.72000 137.241
56.76000 140.619
56.80000 136.686
56.84000 133.155
56.88000 128.251
56.92000 130.795
56.96000 132.236
57.00000 129.640
57.04000 122.746
57.08000 143.043
57.12000 131.063
57.16000 130.792
57.20000 118.110
57.24000 127.771
57.28000 128.862
57.32000 133.754
57.36000 138.312
57.40000 131.470
57.44000 124.450
57.48000 126.206
57.52000 127.142
57.56000 127.775
57.60000 123.997
57.64000 130.852
57.68000 122.051
57.72000 128.087
57.76000 128.607
57.80000 123.982
57.84000 123.983
57.88000 118.986
57.92000 111.446
57.96000 123.270
58.00000 126.898
58.04000 120.217
58.08000 123.912
58.12000 133.585
58.16000 125.354
58.20000 122.614
58.24000 126.900
58.28000 129.446
58.32000 123.232
58.36000 108.102
58.40000 110.978
58.44000 115.619
58.48000 128.570
58.52000 120.935
58.56000 124.695
58.60000 125.458
58.64000 124.326
58.68000 118.242
58.72000 121.888
58.76000 130.516
58.80000 128.373
58.84000 118.799
58.88000 119.811
58.92000 123.016
58.96000 119.477
59.00000 110.793
59.04000 122.234
59.08000 123.564
59.12000 115.531
59.16000 127.517
59.20000 117.847
59.24000 109.372
59.28000 115.592
59.32000 118.031
59.36000 120.949
59.40000 112.231
59.44000 114.840
59.48000 120.483
59.52000 119.603
59.56000 115.981
59.60000 110.165
59.64000 113.715
59.68000 110.562
59.72000 112.873
59.76000 111.848
59.80000 121.612
59.84000 122.674
59.88000 127.401
59.92000 117.011
59.96000 115.217
60.00000 114.151
60.04000 115.631
60.08000 125.137
60.12000 115.805
60.16000 116.560
60.20000 109.576
60.24000 123.353
60.28000 126.713
60.32000 120.665
60.36000 104.582
60.40000 110.206
60.44000 117.955
60.48000 118.905
60.52000 121.385
60.56000 113.451
60.60000 122.220
60.64000 120.320
60.68000 116.598
60.72000 118.496
60.76000 113.009
60.80000 117.147
60.84000 117.387
60.88000 109.634
60.92000 116.638
60.96000 126.386
61.00000 129.656
61.04000 122.170
61.08000 121.644
61.12000 121.718
61.16000 125.100
61.20000 124.840
61.24000 130.596
61.28000 119.841
61.32000 121.185
61.36000 132.501
61.40000 126.021
61.44000 126.468
61.48000 133.783
61.52000 156.063
61.56000 203.669
61.60000 247.555
61.64000 282.510
61.68000 291.394
61.72000 288.717
61.76000 295.217
61.80000 224.949
61.84000 175.135
61.88000 144.231
61.92000 141.736
61.96000 127.896
62.00000 134.254
62.04000 126.076
62.08000 126.199
62.12000 133.434
62.16000 125.847
62.20000 121.605
62.24000 126.099
62.28000 124.774
62.32000 126.655
62.36000 123.053
62.40000 129.382
62.44000 133.691
62.48000 130.608
62.52000 127.571
62.56000 126.016
62.60000 127.585
62.64000 131.874
62.68000 127.160
62.72000 126.704
62.76000 127.604
62.80000 133.439
62.84000 131.301
62.88000 132.858
62.92000 136.576
62.96000 130.681
63.00000 122.410
63.04000 130.816
63.08000 133.105
63.12000 139.665
63.16000 135.307
63.20000 144.466
63.24000 131.042
63.28000 131.695
63.32000 120.809
63.36000 133.722
63.40000 146.753
63.44000 126.229
63.48000 136.644
63.52000 148.866
63.56000 141.796
63.60000 129.809
63.64000 144.511
63.68000 144.181
63.72000 143.501
63.76000 140.329
63.80000 146.020
63.84000 137.344
63.88000 143.094
63.92000 141.794
63.96000 146.628
64.00000 145.116
64.04000 150.820
64.08000 150.648
64.12000 158.500
64.16000 142.881
64.20000 136.097
64.24000 148.248
64.28000 148.381
64.32000 153.822
64.36000 157.885
64.40000 156.631
64.44000 157.269
64.48000 160.704
64.52000 157.879
64.56000 168.603
64.60000 161.545
64.64000 174.380
64.68000 174.151
64.72000 177.850
64.76000 160.837
64.80000 171.226
64.84000 177.703
64.88000 180.968
64.92000 188.577
64.96000 194.727
65.00000 182.788
65.04000 193.170
65.08000 204.157
65.12000 196.731
65.16000 201.467
65.20000 214.172
65.24000 220.731
65.28000 227.470
65.32000 232.052
65.36000 255.313
65.40000 254.926
65.44000 261.684
65.48000 278.158
65.52000 293.503
65.56000 302.733
65.60000 347.456
65.64000 407.173
65.68000 531.902
65.72000 873.673
65.76000 1384.194
65.80000 1786.945
65.84000 1961.630
65.88000 2007.180
65.92000 1907.333
65.96000 1550.159
66.00000 1057.660
66.04000 677.024
66.08000 481.850
66.12000 403.506
66.16000 363.776
66.20000 366.007
66.24000 397.096
66.28000 454.925
66.32000 548.297
66.36000 592.077
66.40000 629.002
66.44000 637.557
66.48000 625.203
66.52000 533.585
66.56000 469.868
66.60000 399.213
66.64000 375.973
66.68000 351.061
66.72000 362.232
66.76000 339.080
66.80000 345.339
66.84000 372.836
66.88000 372.596
66.92000 374.531
66.96000 380.151
67.00000 373.635
67.04000 391.531
67.08000 389.444
67.12000 381.995
67.16000 386.394
67.20000 388.073
67.24000 395.751
67.28000 408.997
67.32000 418.510
67.36000 422.391
67.40000 406.971
67.44000 421.580
67.48000 434.809
67.52000 419.621
67.56000 433.402
67.60000 426.569
67.64000 465.435
67.68000 449.779
67.72000 464.228
67.76000 449.493
67.80000 462.026
67.84000 472.053
67.88000 484.250
67.92000 504.810
67.96000 489.412
68.00000 497.571
68.04000 512.390
68.08000 526.232
68.12000 541.723
68.16000 536.379
68.20000 574.270
68.24000 548.109
68.28000 576.776
68.32000 606.864
68.36000 596.646
68.40000 613.424
68.44000 653.063
68.48000 675.455
68.52000 719.438
68.56000 748.031
68.60000 849.445
68.64000 983.709
68.68000 1117.793
68.72000 1305.729
68.76000 1471.870
68.80000 1649.079
68.84000 1841.118
68.88000 2258.067
68.92000 3191.934
68.96000 8751.393
69.00000 20517.441
69.04000 33498.977
69.08000 40741.070
69.12000 43707.531
69.16000 46459.836
69.20000 46733.109
69.24000 38000.625
69.28000 27669.164
69.32000 22487.453
69.36000 21116.801
69.40000 17920.098
69.44000 11432.570
69.48000 5090.324
69.52000 2238.047
69.56000 1365.711
69.60000 1110.161
69.64000 940.192
69.68000 814.066
69.72000 725.586
69.76000 683.944
69.80000 637.098
69.84000 623.990
69.88000 575.662
69.92000 529.000
69.96000 495.116
70.00000 501.463