File: XRD/XRD/07-10-2025 Dep 6/XY Data/BTO_Mapping_Theta2Theta_07-10-2025_001_47_-2-091_-19-890.xy
20.00000 492.876
20.04000 480.075
20.08000 465.409
20.12000 460.948
20.16000 469.582
20.20000 472.983
20.24000 465.199
20.28000 467.534
20.32000 450.327
20.36000 468.882
20.40000 471.326
20.44000 475.135
20.48000 466.630
20.52000 473.232
20.56000 444.595
20.60000 456.768
20.64000 464.742
20.68000 474.048
20.72000 446.817
20.76000 456.454
20.80000 459.162
20.84000 460.414
20.88000 452.839
20.92000 471.321
20.96000 464.654
21.00000 452.727
21.04000 471.108
21.08000 461.171
21.12000 473.425
21.16000 448.353
21.20000 468.808
21.24000 467.621
21.28000 481.738
21.32000 465.543
21.36000 451.612
21.40000 456.818
21.44000 462.453
21.48000 468.144
21.52000 452.778
21.56000 458.543
21.60000 441.528
21.64000 456.785
21.68000 489.130
21.72000 460.769
21.76000 466.470
21.80000 486.991
21.84000 489.675
21.88000 498.027
21.92000 509.402
21.96000 528.842
22.00000 547.582
22.04000 538.244
22.08000 543.768
22.12000 550.082
22.16000 521.734
22.20000 515.189
22.24000 528.252
22.28000 513.111
22.32000 494.797
22.36000 485.590
22.40000 466.085
22.44000 459.559
22.48000 447.362
22.52000 452.269
22.56000 442.706
22.60000 451.725
22.64000 455.797
22.68000 443.537
22.72000 431.753
22.76000 439.879
22.80000 405.790
22.84000 430.048
22.88000 423.542
22.92000 411.804
22.96000 417.352
23.00000 414.964
23.04000 434.423
23.08000 424.443
23.12000 425.647
23.16000 416.856
23.20000 421.066
23.24000 420.432
23.28000 443.145
23.32000 439.881
23.36000 428.392
23.40000 445.640
23.44000 433.734
23.48000 435.373
23.52000 462.268
23.56000 427.649
23.60000 438.680
23.64000 442.851
23.68000 440.513
23.72000 451.114
23.76000 455.321
23.80000 451.830
23.84000 453.528
23.88000 476.395
23.92000 477.911
23.96000 490.960
24.00000 481.104
24.04000 466.661
24.08000 482.770
24.12000 466.617
24.16000 459.024
24.20000 452.567
24.24000 435.253
24.28000 439.344
24.32000 442.996
24.36000 426.967
24.40000 421.479
24.44000 402.545
24.48000 423.839
24.52000 391.556
24.56000 428.614
24.60000 417.739
24.64000 423.235
24.68000 409.839
24.72000 394.426
24.76000 396.065
24.80000 387.176
24.84000 389.310
24.88000 393.699
24.92000 423.116
24.96000 396.310
25.00000 394.400
25.04000 413.328
25.08000 392.503
25.12000 395.929
25.16000 401.946
25.20000 380.108
25.24000 403.774
25.28000 413.844
25.32000 382.914
25.36000 374.871
25.40000 403.507
25.44000 395.286
25.48000 405.734
25.52000 393.366
25.56000 390.064
25.60000 383.989
25.64000 404.715
25.68000 397.602
25.72000 371.622
25.76000 386.816
25.80000 385.964
25.84000 379.304
25.88000 365.803
25.92000 378.801
25.96000 387.075
26.00000 405.324
26.04000 386.726
26.08000 372.338
26.12000 379.033
26.16000 384.842
26.20000 388.383
26.24000 398.851
26.28000 391.215
26.32000 389.929
26.36000 383.093
26.40000 374.978
26.44000 377.614
26.48000 387.349
26.52000 379.634
26.56000 386.963
26.60000 369.153
26.64000 367.824
26.68000 369.707
26.72000 367.560
26.76000 370.223
26.80000 375.376
26.84000 381.429
26.88000 380.227
26.92000 377.507
26.96000 363.275
27.00000 360.246
27.04000 371.943
27.08000 364.618
27.12000 370.687
27.16000 369.431
27.20000 366.011
27.24000 371.317
27.28000 369.161
27.32000 376.395
27.36000 366.270
27.40000 374.486
27.44000 383.545
27.48000 359.296
27.52000 366.570
27.56000 360.241
27.60000 373.645
27.64000 373.193
27.68000 370.084
27.72000 364.135
27.76000 362.346
27.80000 361.341
27.84000 369.162
27.88000 366.713
27.92000 368.571
27.96000 371.849
28.00000 365.952
28.04000 363.558
28.08000 359.452
28.12000 356.637
28.16000 366.204
28.20000 359.912
28.24000 370.910
28.28000 371.986
28.32000 352.112
28.36000 349.343
28.40000 353.038
28.44000 357.843
28.48000 360.920
28.52000 349.174
28.56000 360.730
28.60000 371.630
28.64000 369.413
28.68000 357.122
28.72000 361.920
28.76000 342.228
28.80000 344.718
28.84000 352.545
28.88000 354.675
28.92000 354.338
28.96000 343.567
29.00000 341.584
29.04000 322.609
29.08000 333.149
29.12000 329.054
29.16000 351.850
29.20000 352.231
29.24000 340.667
29.28000 355.734
29.32000 353.440
29.36000 353.620
29.40000 346.245
29.44000 361.163
29.48000 343.643
29.52000 345.055
29.56000 342.107
29.60000 347.480
29.64000 351.661
29.68000 333.236
29.72000 348.955
29.76000 356.432
29.80000 358.515
29.84000 363.476
29.88000 348.986
29.92000 375.828
29.96000 364.330
30.00000 380.828
30.04000 380.325
30.08000 368.585
30.12000 366.224
30.16000 366.365
30.20000 358.189
30.24000 360.174
30.28000 361.416
30.32000 355.819
30.36000 337.923
30.40000 337.075
30.44000 358.666
30.48000 369.565
30.52000 363.166
30.56000 363.729
30.60000 358.044
30.64000 361.384
30.68000 346.373
30.72000 343.923
30.76000 362.970
30.80000 374.387
30.84000 382.780
30.88000 376.503
30.92000 386.088
30.96000 409.836
31.00000 437.662
31.04000 482.869
31.08000 526.701
31.12000 600.386
31.16000 664.219
31.20000 776.678
31.24000 893.746
31.28000 980.199
31.32000 1085.102
31.36000 1149.933
31.40000 1133.179
31.44000 1044.347
31.48000 970.691
31.52000 860.562
31.56000 743.250
31.60000 625.492
31.64000 558.848
31.68000 486.506
31.72000 447.126
31.76000 392.672
31.80000 387.496
31.84000 369.221
31.88000 365.451
31.92000 358.737
31.96000 343.681
32.00000 335.581
32.04000 332.902
32.08000 340.563
32.12000 344.354
32.16000 339.168
32.20000 337.591
32.24000 324.249
32.28000 322.198
32.32000 336.218
32.36000 340.509
32.40000 324.324
32.44000 318.145
32.48000 306.197
32.52000 313.586
32.56000 322.207
32.60000 315.281
32.64000 322.395
32.68000 303.477
32.72000 316.442
32.76000 333.878
32.80000 324.458
32.84000 387.054
32.88000 441.200
32.92000 474.023
32.96000 520.766
33.00000 494.785
33.04000 484.532
33.08000 417.246
33.12000 377.536
33.16000 331.080
33.20000 319.044
33.24000 293.701
33.28000 313.818
33.32000 300.697
33.36000 290.421
33.40000 300.702
33.44000 285.826
33.48000 299.386
33.52000 297.388
33.56000 285.094
33.60000 278.892
33.64000 285.656
33.68000 290.901
33.72000 298.343
33.76000 294.545
33.80000 289.274
33.84000 286.885
33.88000 288.881
33.92000 288.329
33.96000 293.172
34.00000 309.704
34.04000 312.584
34.08000 316.196
34.12000 306.358
34.16000 299.761
34.20000 324.269
34.24000 317.597
34.28000 319.277
34.32000 324.745
34.36000 320.439
34.40000 318.637
34.44000 326.785
34.48000 321.030
34.52000 316.738
34.56000 313.646
34.60000 300.765
34.64000 296.245
34.68000 289.886
34.72000 298.866
34.76000 285.889
34.80000 287.961
34.84000 285.505
34.88000 279.312
34.92000 277.258
34.96000 274.502
35.00000 268.281
35.04000 269.892
35.08000 285.175
35.12000 268.884
35.16000 256.825
35.20000 280.326
35.24000 280.894
35.28000 263.400
35.32000 260.746
35.36000 257.318
35.40000 265.669
35.44000 257.541
35.48000 259.618
35.52000 263.965
35.56000 252.905
35.60000 275.602
35.64000 263.995
35.68000 257.864
35.72000 254.871
35.76000 258.759
35.80000 257.490
35.84000 258.784
35.88000 249.827
35.92000 266.420
35.96000 267.546
36.00000 253.120
36.04000 255.999
36.08000 254.402
36.12000 252.994
36.16000 261.240
36.20000 250.836
36.24000 251.278
36.28000 254.669
36.32000 242.110
36.36000 257.565
36.40000 269.768
36.44000 246.638
36.48000 252.710
36.52000 254.874
36.56000 253.724
36.60000 254.711
36.64000 257.094
36.68000 257.828
36.72000 258.890
36.76000 258.377
36.80000 258.398
36.84000 244.236
36.88000 261.515
36.92000 265.837
36.96000 266.904
37.00000 276.334
37.04000 287.304
37.08000 267.294
37.12000 277.607
37.16000 282.132
37.20000 263.824
37.24000 271.214
37.28000 249.326
37.32000 267.653
37.36000 264.100
37.40000 244.342
37.44000 268.948
37.48000 252.401
37.52000 243.765
37.56000 233.564
37.60000 252.207
37.64000 263.699
37.68000 234.389
37.72000 257.018
37.76000 256.584
37.80000 245.869
37.84000 247.356
37.88000 246.169
37.92000 250.489
37.96000 239.723
38.00000 230.146
38.04000 257.600
38.08000 262.597
38.12000 258.214
38.16000 266.519
38.20000 265.257
38.24000 266.798
38.28000 282.822
38.32000 296.669
38.36000 318.946
38.40000 353.448
38.44000 421.298
38.48000 501.153
38.52000 618.578
38.56000 706.776
38.60000 811.229
38.64000 960.855
38.68000 1013.481
38.72000 1087.331
38.76000 1073.956
38.80000 986.769
38.84000 846.777
38.88000 742.737
38.92000 613.237
38.96000 494.872
39.00000 400.669
39.04000 344.183
39.08000 296.100
39.12000 278.898
39.16000 255.863
39.20000 257.309
39.24000 238.982
39.28000 227.383
39.32000 242.865
39.36000 243.999
39.40000 241.411
39.44000 240.783
39.48000 242.200
39.52000 218.087
39.56000 234.251
39.60000 237.659
39.64000 237.858
39.68000 234.228
39.72000 232.069
39.76000 215.867
39.80000 225.482
39.84000 230.000
39.88000 236.904
39.92000 233.408
39.96000 223.032
40.00000 224.126
40.04000 228.933
40.08000 225.490
40.12000 222.677
40.16000 239.363
40.20000 231.190
40.24000 224.143
40.28000 203.932
40.32000 204.191
40.36000 209.018
40.40000 218.834
40.44000 213.090
40.48000 225.198
40.52000 215.510
40.56000 211.790
40.60000 215.310
40.64000 214.288
40.68000 210.433
40.72000 220.665
40.76000 209.144
40.80000 219.254
40.84000 211.096
40.88000 209.177
40.92000 209.376
40.96000 208.568
41.00000 214.125
41.04000 206.016
41.08000 202.714
41.12000 205.385
41.16000 200.075
41.20000 209.560
41.24000 202.509
41.28000 214.952
41.32000 216.300
41.36000 207.913
41.40000 205.090
41.44000 219.870
41.48000 221.201
41.52000 209.050
41.56000 197.171
41.60000 205.903
41.64000 194.257
41.68000 185.636
41.72000 199.745
41.76000 203.638
41.80000 214.372
41.84000 205.767
41.88000 216.334
41.92000 198.753
41.96000 214.648
42.00000 207.885
42.04000 208.808
42.08000 219.436
42.12000 221.519
42.16000 217.525
42.20000 215.424
42.24000 209.770
42.28000 220.608
42.32000 221.423
42.36000 209.697
42.40000 212.863
42.44000 211.542
42.48000 202.169
42.52000 204.586
42.56000 212.444
42.60000 214.341
42.64000 214.945
42.68000 196.593
42.72000 205.455
42.76000 200.712
42.80000 189.180
42.84000 201.609
42.88000 206.118
42.92000 195.165
42.96000 206.392
43.00000 196.916
43.04000 200.403
43.08000 199.912
43.12000 187.820
43.16000 207.128
43.20000 185.028
43.24000 199.191
43.28000 193.737
43.32000 202.563
43.36000 192.088
43.40000 191.173
43.44000 197.564
43.48000 177.439
43.52000 193.397
43.56000 205.164
43.60000 196.405
43.64000 188.801
43.68000 189.679
43.72000 196.820
43.76000 194.038
43.80000 175.403
43.84000 193.706
43.88000 195.664
43.92000 196.338
43.96000 192.539
44.00000 187.099
44.04000 186.069
44.08000 195.236
44.12000 197.206
44.16000 187.115
44.20000 200.816
44.24000 192.529
44.28000 188.575
44.32000 187.643
44.36000 199.154
44.40000 196.899
44.44000 208.125
44.48000 206.419
44.52000 209.049
44.56000 203.691
44.60000 208.928
44.64000 202.805
44.68000 211.715
44.72000 216.626
44.76000 225.350
44.80000 218.940
44.84000 247.363
44.88000 242.446
44.92000 251.596
44.96000 258.686
45.00000 276.734
45.04000 270.603
45.08000 262.608
45.12000 270.813
45.16000 254.483
45.20000 248.456
45.24000 249.944
45.28000 245.228
45.32000 219.709
45.36000 220.521
45.40000 233.246
45.44000 224.831
45.48000 202.925
45.52000 214.853
45.56000 209.537
45.60000 215.425
45.64000 194.106
45.68000 192.254
45.72000 197.896
45.76000 191.783
45.80000 196.734
45.84000 201.892
45.88000 185.769
45.92000 180.688
45.96000 182.548
46.00000 190.581
46.04000 184.188
46.08000 190.398
46.12000 179.539
46.16000 186.646
46.20000 179.044
46.24000 174.493
46.28000 174.490
46.32000 174.668
46.36000 167.920
46.40000 160.880
46.44000 162.128
46.48000 185.577
46.52000 175.431
46.56000 166.591
46.60000 167.307
46.64000 171.434
46.68000 177.063
46.72000 177.359
46.76000 167.983
46.80000 170.455
46.84000 171.014
46.88000 174.473
46.92000 169.589
46.96000 170.014
47.00000 169.261
47.04000 177.510
47.08000 163.319
47.12000 182.854
47.16000 162.726
47.20000 154.936
47.24000 163.183
47.28000 168.618
47.32000 161.318
47.36000 163.213
47.40000 163.662
47.44000 167.430
47.48000 169.141
47.52000 165.029
47.56000 159.901
47.60000 159.385
47.64000 171.461
47.68000 161.778
47.72000 149.923
47.76000 166.157
47.80000 159.356
47.84000 149.597
47.88000 168.171
47.92000 155.433
47.96000 150.520
48.00000 155.468
48.04000 158.875
48.08000 158.069
48.12000 156.463
48.16000 163.847
48.20000 165.100
48.24000 149.165
48.28000 154.366
48.32000 163.277
48.36000 166.799
48.40000 153.461
48.44000 159.425
48.48000 154.692
48.52000 162.409
48.56000 154.671
48.60000 156.886
48.64000 155.423
48.68000 156.178
48.72000 151.241
48.76000 154.803
48.80000 157.752
48.84000 158.610
48.88000 148.316
48.92000 148.536
48.96000 151.375
49.00000 140.488
49.04000 148.548
49.08000 149.624
49.12000 157.011
49.16000 150.010
49.20000 150.275
49.24000 156.844
49.28000 156.013
49.32000 149.495
49.36000 139.908
49.40000 165.134
49.44000 152.895
49.48000 140.034
49.52000 156.836
49.56000 154.282
49.60000 148.415
49.64000 152.362
49.68000 153.940
49.72000 151.438
49.76000 142.281
49.80000 148.537
49.84000 148.285
49.88000 147.917
49.92000 157.634
49.96000 148.748
50.00000 146.049
50.04000 148.037
50.08000 147.796
50.12000 148.797
50.16000 147.259
50.20000 154.458
50.24000 148.015
50.28000 156.488
50.32000 148.171
50.36000 152.759
50.40000 170.424
50.44000 163.716
50.48000 156.781
50.52000 160.334
50.56000 163.603
50.60000 178.824
50.64000 163.603
50.68000 161.976
50.72000 175.377
50.76000 162.099
50.80000 162.851
50.84000 159.881
50.88000 159.557
50.92000 151.420
50.96000 155.302
51.00000 157.909
51.04000 156.205
51.08000 155.485
51.12000 150.232
51.16000 132.915
51.20000 140.829
51.24000 144.511
51.28000 144.741
51.32000 155.396
51.36000 146.790
51.40000 144.754
51.44000 148.901
51.48000 141.543
51.52000 142.024
51.56000 133.595
51.60000 147.957
51.64000 143.014
51.68000 141.959
51.72000 141.706
51.76000 148.127
51.80000 151.766
51.84000 136.017
51.88000 152.967
51.92000 144.354
51.96000 135.653
52.00000 136.505
52.04000 146.147
52.08000 136.935
52.12000 142.917
52.16000 140.667
52.20000 146.041
52.24000 133.810
52.28000 133.696
52.32000 136.238
52.36000 144.527
52.40000 147.966
52.44000 137.506
52.48000 138.741
52.52000 125.381
52.56000 131.448
52.60000 141.578
52.64000 132.623
52.68000 130.869
52.72000 147.082
52.76000 129.446
52.80000 139.921
52.84000 138.748
52.88000 133.991
52.92000 147.538
52.96000 148.843
53.00000 148.897
53.04000 145.571
53.08000 136.751
53.12000 154.246
53.16000 138.273
53.20000 141.837
53.24000 148.891
53.28000 145.506
53.32000 143.500
53.36000 152.808
53.40000 152.313
53.44000 145.408
53.48000 157.857
53.52000 158.233
53.56000 148.173
53.60000 156.221
53.64000 151.899
53.68000 141.175
53.72000 151.609
53.76000 144.202
53.80000 145.041
53.84000 151.993
53.88000 135.069
53.92000 135.431
53.96000 131.309
54.00000 144.648
54.04000 144.171
54.08000 138.269
54.12000 140.560
54.16000 149.079
54.20000 138.064
54.24000 143.251
54.28000 139.128
54.32000 124.194
54.36000 133.957
54.40000 134.859
54.44000 142.239
54.48000 128.149
54.52000 142.457
54.56000 140.736
54.60000 144.143
54.64000 141.020
54.68000 137.174
54.72000 132.767
54.76000 140.564
54.80000 138.378
54.84000 140.906
54.88000 146.001
54.92000 138.875
54.96000 143.514
55.00000 140.154
55.04000 138.637
55.08000 146.519
55.12000 140.667
55.16000 150.211
55.20000 140.607
55.24000 160.048
55.28000 158.730
55.32000 151.759
55.36000 160.503
55.40000 170.733
55.44000 188.608
55.48000 193.839
55.52000 212.385
55.56000 235.192
55.60000 258.798
55.64000 295.709
55.68000 357.976
55.72000 404.912
55.76000 469.630
55.80000 512.902
55.84000 568.084
55.88000 619.533
55.92000 627.945
55.96000 637.633
56.00000 621.969
56.04000 584.315
56.08000 530.055
56.12000 474.665
56.16000 433.526
56.20000 361.768
56.24000 322.036
56.28000 263.710
56.32000 235.543
56.36000 219.197
56.40000 190.522
56.44000 171.418
56.48000 161.473
56.52000 155.300
56.56000 145.707
56.60000 142.329
56.64000 151.179
56.68000 137.576
56.72000 136.559
56.76000 137.255
56.80000 140.284
56.84000 136.667
56.88000 124.643
56.92000 134.083
56.96000 130.969
57.00000 136.944
57.04000 127.385
57.08000 128.896
57.12000 126.647
57.16000 122.719
57.20000 119.629
57.24000 122.427
57.28000 128.686
57.32000 128.911
57.36000 123.003
57.40000 126.709
57.44000 126.359
57.48000 118.029
57.52000 127.453
57.56000 126.445
57.60000 114.636
57.64000 119.417
57.68000 130.807
57.72000 128.342
57.76000 121.572
57.80000 124.639
57.84000 132.661
57.88000 120.068
57.92000 123.569
57.96000 121.959
58.00000 115.715
58.04000 125.207
58.08000 115.041
58.12000 117.698
58.16000 128.593
58.20000 113.766
58.24000 123.321
58.28000 119.004
58.32000 121.381
58.36000 126.704
58.40000 114.104
58.44000 121.317
58.48000 116.523
58.52000 121.910
58.56000 109.576
58.60000 120.337
58.64000 112.731
58.68000 120.777
58.72000 112.821
58.76000 120.336
58.80000 120.076
58.84000 126.560
58.88000 109.117
58.92000 114.564
58.96000 125.705
59.00000 121.282
59.04000 106.682
59.08000 123.564
59.12000 121.737
59.16000 117.163
59.20000 119.408
59.24000 121.766
59.28000 111.028
59.32000 122.733
59.36000 114.373
59.40000 118.674
59.44000 122.244
59.48000 101.473
59.52000 122.308
59.56000 108.080
59.60000 108.274
59.64000 118.277
59.68000 114.908
59.72000 116.549
59.76000 119.165
59.80000 121.877
59.84000 111.950
59.88000 125.174
59.92000 111.161
59.96000 115.133
60.00000 132.891
60.04000 116.509
60.08000 109.606
60.12000 124.759
60.16000 119.554
60.20000 112.589
60.24000 116.031
60.28000 116.654
60.32000 108.567
60.36000 116.524
60.40000 110.582
60.44000 119.616
60.48000 123.770
60.52000 115.308
60.56000 111.109
60.60000 110.792
60.64000 122.686
60.68000 123.195
60.72000 118.885
60.76000 113.171
60.80000 115.970
60.84000 111.500
60.88000 113.209
60.92000 119.399
60.96000 127.597
61.00000 113.722
61.04000 116.792
61.08000 123.649
61.12000 117.008
61.16000 129.362
61.20000 126.883
61.24000 117.835
61.28000 124.253
61.32000 118.102
61.36000 121.316
61.40000 123.287
61.44000 110.754
61.48000 137.796
61.52000 147.373
61.56000 195.372
61.60000 242.532
61.64000 269.872
61.68000 282.453
61.72000 280.071
61.76000 270.664
61.80000 213.609
61.84000 164.323
61.88000 142.048
61.92000 123.122
61.96000 123.025
62.00000 120.624
62.04000 131.263
62.08000 130.693
62.12000 133.456
62.16000 125.591
62.20000 127.288
62.24000 122.039
62.28000 123.644
62.32000 127.791
62.36000 126.258
62.40000 138.321
62.44000 126.323
62.48000 129.428
62.52000 121.874
62.56000 130.762
62.60000 131.178
62.64000 128.210
62.68000 124.936
62.72000 123.743
62.76000 128.334
62.80000 123.166
62.84000 129.650
62.88000 124.641
62.92000 129.439
62.96000 126.162
63.00000 131.249
63.04000 134.114
63.08000 121.797
63.12000 137.184
63.16000 133.874
63.20000 124.668
63.24000 123.497
63.28000 141.255
63.32000 143.538
63.36000 131.922
63.40000 138.434
63.44000 133.221
63.48000 136.566
63.52000 140.771
63.56000 137.394
63.60000 133.640
63.64000 141.868
63.68000 138.890
63.72000 144.254
63.76000 133.245
63.80000 140.210
63.84000 136.465
63.88000 140.955
63.92000 144.552
63.96000 140.156
64.00000 141.930
64.04000 137.365
64.08000 142.170
64.12000 141.158
64.16000 142.368
64.20000 146.728
64.24000 155.875
64.28000 155.038
64.32000 145.540
64.36000 152.304
64.40000 153.787
64.44000 151.409
64.48000 156.797
64.52000 156.323
64.56000 162.251
64.60000 162.889
64.64000 162.603
64.68000 158.633
64.72000 170.896
64.76000 155.335
64.80000 167.392
64.84000 178.285
64.88000 159.922
64.92000 178.355
64.96000 181.456
65.00000 182.379
65.04000 186.867
65.08000 188.662
65.12000 192.500
65.16000 210.686
65.20000 208.189
65.24000 213.237
65.28000 222.920
65.32000 238.994
65.36000 245.265
65.40000 248.761
65.44000 262.927
65.48000 287.125
65.52000 290.317
65.56000 318.573
65.60000 362.184
65.64000 411.001
65.68000 579.220
65.72000 877.093
65.76000 1342.887
65.80000 1751.980
65.84000 1893.962
65.88000 1930.441
65.92000 1848.989
65.96000 1507.318
66.00000 977.370
66.04000 639.986
66.08000 476.774
66.12000 403.685
66.16000 351.488
66.20000 359.366
66.24000 385.916
66.28000 430.845
66.32000 529.986
66.36000 569.358
66.40000 616.021
66.44000 616.396
66.48000 567.692
66.52000 498.015
66.56000 442.073
66.60000 384.561
66.64000 348.561
66.68000 337.172
66.72000 341.173
66.76000 356.384
66.80000 346.528
66.84000 354.756
66.88000 348.817
66.92000 362.840
66.96000 360.478
67.00000 361.580
67.04000 356.470
67.08000 390.773
67.12000 376.818
67.16000 370.271
67.20000 384.242
67.24000 376.778
67.28000 394.636
67.32000 388.698
67.36000 366.959
67.40000 397.006
67.44000 409.486
67.48000 432.599
67.52000 406.269
67.56000 410.538
67.60000 433.942
67.64000 426.822
67.68000 448.146
67.72000 439.407
67.76000 424.954
67.80000 466.560
67.84000 454.101
67.88000 459.003
67.92000 485.037
67.96000 487.332
68.00000 483.824
68.04000 508.400
68.08000 509.477
68.12000 508.883
68.16000 512.022
68.20000 549.194
68.24000 547.109
68.28000 561.943
68.32000 558.361
68.36000 597.805
68.40000 606.602
68.44000 643.240
68.48000 640.179
68.52000 682.457
68.56000 733.512
68.60000 789.350
68.64000 958.363
68.68000 1119.361
68.72000 1277.095
68.76000 1443.704
68.80000 1574.391
68.84000 1815.778
68.88000 2199.717
68.92000 3296.615
68.96000 9232.598
69.00000 20856.330
69.04000 33363.836
69.08000 39948.910
69.12000 42364.813
69.16000 45268.773
69.20000 45006.184
69.24000 35861.020
69.28000 26694.848
69.32000 21801.250
69.36000 20256.221
69.40000 16945.240
69.44000 10413.532
69.48000 4727.371
69.52000 2069.979
69.56000 1324.198
69.60000 1020.489
69.64000 898.061
69.68000 784.274
69.72000 716.486
69.76000 659.201
69.80000 612.540
69.84000 596.193
69.88000 565.077
69.92000 511.537
69.96000 487.574
70.00000 496.323