File: XRD/XRD/07-10-2025 Dep 6/XY Data/BTO_Mapping_Theta2Theta_07-10-2025_001_02_10-000_0-000.xy
20.00000 492.407
20.04000 481.636
20.08000 482.999
20.12000 493.483
20.16000 478.291
20.20000 480.932
20.24000 464.541
20.28000 467.972
20.32000 462.015
20.36000 462.174
20.40000 448.045
20.44000 480.753
20.48000 482.897
20.52000 455.955
20.56000 469.553
20.60000 459.882
20.64000 471.827
20.68000 473.937
20.72000 456.871
20.76000 474.977
20.80000 465.607
20.84000 455.242
20.88000 460.546
20.92000 456.898
20.96000 455.247
21.00000 464.897
21.04000 466.985
21.08000 473.861
21.12000 474.809
21.16000 456.669
21.20000 462.990
21.24000 444.369
21.28000 468.053
21.32000 448.480
21.36000 455.001
21.40000 459.039
21.44000 460.974
21.48000 443.051
21.52000 460.796
21.56000 449.052
21.60000 462.670
21.64000 461.529
21.68000 452.873
21.72000 454.675
21.76000 452.949
21.80000 469.741
21.84000 491.119
21.88000 514.567
21.92000 488.845
21.96000 497.221
22.00000 507.504
22.04000 514.107
22.08000 508.203
22.12000 508.742
22.16000 502.626
22.20000 505.314
22.24000 496.134
22.28000 499.865
22.32000 491.911
22.36000 471.325
22.40000 473.329
22.44000 464.764
22.48000 432.206
22.52000 469.202
22.56000 441.037
22.60000 450.665
22.64000 443.704
22.68000 452.232
22.72000 448.663
22.76000 446.535
22.80000 448.333
22.84000 436.804
22.88000 447.410
22.92000 434.343
22.96000 440.674
23.00000 428.859
23.04000 441.071
23.08000 430.724
23.12000 435.550
23.16000 438.295
23.20000 430.151
23.24000 413.073
23.28000 429.938
23.32000 439.847
23.36000 427.017
23.40000 434.583
23.44000 420.932
23.48000 439.084
23.52000 441.140
23.56000 446.671
23.60000 447.337
23.64000 440.485
23.68000 441.045
23.72000 456.642
23.76000 472.844
23.80000 471.971
23.84000 488.762
23.88000 498.985
23.92000 502.357
23.96000 489.188
24.00000 505.359
24.04000 505.638
24.08000 489.525
24.12000 478.284
24.16000 474.236
24.20000 462.570
24.24000 463.681
24.28000 457.381
24.32000 439.832
24.36000 448.685
24.40000 430.068
24.44000 419.051
24.48000 429.589
24.52000 421.568
24.56000 404.814
24.60000 404.202
24.64000 418.820
24.68000 419.338
24.72000 414.117
24.76000 408.260
24.80000 402.480
24.84000 406.804
24.88000 402.142
24.92000 405.036
24.96000 392.600
25.00000 396.190
25.04000 408.888
25.08000 383.679
25.12000 410.060
25.16000 417.254
25.20000 406.170
25.24000 388.868
25.28000 399.132
25.32000 401.510
25.36000 402.232
25.40000 381.047
25.44000 392.530
25.48000 392.211
25.52000 400.950
25.56000 398.544
25.60000 409.072
25.64000 361.419
25.68000 387.679
25.72000 400.491
25.76000 396.631
25.80000 393.324
25.84000 400.283
25.88000 391.889
25.92000 388.680
25.96000 386.973
26.00000 397.751
26.04000 376.779
26.08000 390.910
26.12000 387.042
26.16000 392.612
26.20000 369.957
26.24000 387.848
26.28000 378.866
26.32000 394.052
26.36000 371.377
26.40000 376.627
26.44000 377.413
26.48000 387.495
26.52000 385.999
26.56000 373.928
26.60000 366.725
26.64000 372.138
26.68000 392.167
26.72000 382.770
26.76000 399.326
26.80000 370.504
26.84000 384.746
26.88000 385.494
26.92000 374.511
26.96000 359.305
27.00000 369.764
27.04000 377.162
27.08000 361.002
27.12000 366.187
27.16000 372.998
27.20000 372.506
27.24000 373.860
27.28000 380.604
27.32000 376.449
27.36000 369.585
27.40000 370.642
27.44000 379.984
27.48000 347.835
27.52000 370.954
27.56000 364.924
27.60000 351.328
27.64000 354.963
27.68000 366.429
27.72000 374.393
27.76000 369.825
27.80000 377.606
27.84000 355.028
27.88000 359.133
27.92000 354.850
27.96000 358.864
28.00000 373.370
28.04000 372.122
28.08000 359.024
28.12000 356.350
28.16000 354.257
28.20000 374.373
28.24000 366.147
28.28000 359.799
28.32000 365.073
28.36000 366.113
28.40000 364.827
28.44000 354.092
28.48000 360.741
28.52000 361.055
28.56000 343.825
28.60000 357.238
28.64000 347.302
28.68000 345.405
28.72000 334.387
28.76000 344.857
28.80000 353.563
28.84000 363.617
28.88000 347.562
28.92000 344.409
28.96000 361.166
29.00000 347.885
29.04000 354.142
29.08000 352.340
29.12000 349.516
29.16000 368.518
29.20000 341.864
29.24000 345.803
29.28000 349.865
29.32000 366.776
29.36000 339.200
29.40000 349.751
29.44000 336.980
29.48000 344.777
29.52000 353.142
29.56000 334.836
29.60000 346.351
29.64000 351.946
29.68000 355.044
29.72000 361.448
29.76000 371.452
29.80000 369.663
29.84000 357.365
29.88000 378.257
29.92000 371.215
29.96000 373.034
30.00000 363.637
30.04000 379.742
30.08000 396.861
30.12000 375.076
30.16000 372.413
30.20000 371.065
30.24000 366.529
30.28000 360.599
30.32000 355.990
30.36000 363.788
30.40000 374.877
30.44000 366.460
30.48000 361.444
30.52000 377.181
30.56000 361.433
30.60000 377.980
30.64000 375.757
30.68000 368.859
30.72000 390.474
30.76000 374.780
30.80000 387.169
30.84000 406.326
30.88000 402.373
30.92000 404.023
30.96000 442.383
31.00000 452.150
31.04000 517.139
31.08000 553.295
31.12000 613.267
31.16000 698.197
31.20000 795.497
31.24000 896.032
31.28000 1013.399
31.32000 1086.187
31.36000 1168.033
31.40000 1188.645
31.44000 1160.170
31.48000 1061.770
31.52000 949.271
31.56000 831.009
31.60000 720.350
31.64000 632.328
31.68000 543.532
31.72000 500.397
31.76000 443.471
31.80000 425.047
31.84000 398.484
31.88000 397.210
31.92000 368.483
31.96000 369.646
32.00000 367.774
32.04000 365.899
32.08000 348.019
32.12000 339.205
32.16000 347.343
32.20000 341.977
32.24000 340.220
32.28000 336.895
32.32000 340.052
32.36000 320.131
32.40000 347.948
32.44000 351.081
32.48000 331.220
32.52000 325.998
32.56000 332.292
32.60000 328.511
32.64000 321.665
32.68000 325.188
32.72000 316.895
32.76000 313.510
32.80000 354.511
32.84000 404.426
32.88000 456.236
32.92000 525.407
32.96000 516.056
33.00000 527.735
33.04000 508.868
33.08000 429.837
33.12000 381.772
33.16000 336.302
33.20000 303.221
33.24000 289.424
33.28000 300.422
33.32000 290.501
33.36000 304.811
33.40000 296.028
33.44000 288.802
33.48000 279.648
33.52000 299.845
33.56000 300.434
33.60000 294.522
33.64000 306.629
33.68000 290.875
33.72000 304.455
33.76000 298.586
33.80000 305.600
33.84000 309.109
33.88000 312.618
33.92000 294.125
33.96000 311.484
34.00000 307.755
34.04000 307.270
34.08000 323.661
34.12000 316.845
34.16000 345.943
34.20000 344.175
34.24000 318.909
34.28000 325.470
34.32000 324.646
34.36000 341.383
34.40000 335.000
34.44000 340.778
34.48000 323.382
34.52000 327.913
34.56000 329.378
34.60000 320.070
34.64000 300.174
34.68000 297.534
34.72000 287.608
34.76000 286.971
34.80000 280.984
34.84000 279.473
34.88000 273.885
34.92000 285.222
34.96000 265.618
35.00000 275.931
35.04000 280.838
35.08000 279.577
35.12000 256.337
35.16000 265.934
35.20000 278.187
35.24000 270.621
35.28000 256.168
35.32000 265.453
35.36000 258.421
35.40000 269.937
35.44000 257.972
35.48000 265.789
35.52000 266.008
35.56000 267.167
35.60000 258.772
35.64000 277.992
35.68000 252.323
35.72000 266.894
35.76000 267.329
35.80000 248.500
35.84000 261.317
35.88000 268.791
35.92000 268.832
35.96000 257.664
36.00000 253.043
36.04000 249.011
36.08000 250.212
36.12000 243.090
36.16000 264.268
36.20000 259.963
36.24000 258.292
36.28000 258.125
36.32000 261.304
36.36000 256.023
36.40000 255.381
36.44000 252.559
36.48000 254.641
36.52000 263.279
36.56000 245.047
36.60000 257.565
36.64000 256.586
36.68000 255.846
36.72000 252.357
36.76000 260.545
36.80000 252.869
36.84000 265.004
36.88000 258.458
36.92000 257.781
36.96000 272.287
37.00000 273.481
37.04000 254.179
37.08000 267.388
37.12000 273.680
37.16000 285.849
37.20000 278.566
37.24000 256.911
37.28000 251.949
37.32000 234.011
37.36000 247.779
37.40000 258.099
37.44000 237.155
37.48000 246.887
37.52000 244.071
37.56000 259.909
37.60000 247.725
37.64000 247.723
37.68000 252.589
37.72000 254.030
37.76000 243.657
37.80000 254.153
37.84000 239.629
37.88000 249.092
37.92000 256.107
37.96000 251.087
38.00000 251.067
38.04000 253.757
38.08000 253.534
38.12000 260.072
38.16000 256.725
38.20000 257.497
38.24000 270.003
38.28000 278.981
38.32000 284.534
38.36000 291.227
38.40000 315.414
38.44000 366.987
38.48000 405.062
38.52000 459.795
38.56000 565.540
38.60000 630.978
38.64000 718.069
38.68000 771.881
38.72000 823.610
38.76000 814.300
38.80000 749.357
38.84000 651.868
38.88000 548.096
38.92000 464.866
38.96000 391.593
39.00000 331.146
39.04000 303.080
39.08000 270.159
39.12000 256.031
39.16000 239.316
39.20000 239.380
39.24000 254.627
39.28000 241.930
39.32000 248.143
39.36000 228.916
39.40000 233.654
39.44000 243.229
39.48000 230.109
39.52000 227.375
39.56000 240.483
39.60000 219.458
39.64000 238.085
39.68000 230.496
39.72000 242.157
39.76000 237.314
39.80000 227.930
39.84000 218.700
39.88000 229.110
39.92000 238.437
39.96000 245.902
40.00000 227.822
40.04000 242.194
40.08000 217.720
40.12000 235.340
40.16000 226.949
40.20000 222.553
40.24000 225.436
40.28000 224.934
40.32000 214.914
40.36000 221.550
40.40000 223.441
40.44000 220.609
40.48000 212.479
40.52000 219.402
40.56000 212.972
40.60000 215.315
40.64000 216.994
40.68000 205.865
40.72000 210.750
40.76000 212.690
40.80000 199.547
40.84000 195.180
40.88000 211.817
40.92000 206.657
40.96000 204.471
41.00000 210.077
41.04000 214.091
41.08000 206.604
41.12000 205.591
41.16000 224.105
41.20000 217.557
41.24000 203.254
41.28000 204.196
41.32000 213.011
41.36000 201.847
41.40000 218.310
41.44000 204.261
41.48000 202.292
41.52000 199.642
41.56000 209.994
41.60000 199.029
41.64000 223.568
41.68000 217.870
41.72000 216.506
41.76000 216.664
41.80000 215.416
41.84000 204.799
41.88000 205.459
41.92000 215.821
41.96000 208.261
42.00000 203.821
42.04000 219.019
42.08000 214.283
42.12000 204.519
42.16000 223.685
42.20000 218.466
42.24000 211.236
42.28000 208.712
42.32000 212.929
42.36000 218.560
42.40000 218.456
42.44000 212.619
42.48000 204.112
42.52000 213.418
42.56000 193.937
42.60000 209.031
42.64000 206.912
42.68000 208.273
42.72000 204.599
42.76000 199.144
42.80000 195.378
42.84000 219.298
42.88000 204.049
42.92000 203.065
42.96000 199.800
43.00000 191.064
43.04000 205.748
43.08000 195.539
43.12000 206.435
43.16000 194.962
43.20000 188.603
43.24000 191.645
43.28000 208.311
43.32000 195.102
43.36000 200.249
43.40000 196.589
43.44000 192.124
43.48000 179.210
43.52000 199.181
43.56000 192.830
43.60000 185.788
43.64000 200.813
43.68000 198.260
43.72000 189.183
43.76000 197.025
43.80000 205.739
43.84000 189.106
43.88000 197.536
43.92000 190.343
43.96000 200.521
44.00000 196.842
44.04000 193.092
44.08000 182.733
44.12000 203.609
44.16000 201.130
44.20000 193.708
44.24000 197.059
44.28000 199.650
44.32000 214.040
44.36000 191.599
44.40000 177.168
44.44000 211.969
44.48000 212.108
44.52000 213.288
44.56000 212.298
44.60000 210.337
44.64000 212.579
44.68000 198.903
44.72000 219.219
44.76000 210.783
44.80000 219.445
44.84000 223.358
44.88000 220.018
44.92000 222.980
44.96000 216.280
45.00000 227.715
45.04000 224.888
45.08000 217.558
45.12000 222.387
45.16000 238.428
45.20000 233.530
45.24000 203.197
45.28000 214.651
45.32000 206.515
45.36000 216.633
45.40000 207.752
45.44000 203.977
45.48000 208.798
45.52000 214.324
45.56000 201.326
45.60000 194.838
45.64000 203.143
45.68000 192.033
45.72000 187.303
45.76000 186.913
45.80000 184.963
45.84000 180.910
45.88000 180.309
45.92000 183.676
45.96000 186.028
46.00000 186.253
46.04000 179.747
46.08000 179.085
46.12000 177.245
46.16000 171.131
46.20000 181.802
46.24000 162.626
46.28000 167.005
46.32000 171.266
46.36000 174.238
46.40000 178.223
46.44000 173.278
46.48000 193.832
46.52000 177.510
46.56000 166.568
46.60000 176.813
46.64000 173.438
46.68000 176.298
46.72000 174.614
46.76000 174.143
46.80000 176.151
46.84000 179.475
46.88000 182.426
46.92000 170.832
46.96000 179.217
47.00000 170.988
47.04000 161.823
47.08000 165.580
47.12000 181.687
47.16000 165.931
47.20000 168.659
47.24000 159.631
47.28000 172.491
47.32000 164.880
47.36000 163.445
47.40000 165.820
47.44000 159.457
47.48000 151.946
47.52000 175.386
47.56000 167.843
47.60000 162.912
47.64000 170.834
47.68000 170.205
47.72000 161.978
47.76000 159.925
47.80000 153.502
47.84000 167.410
47.88000 154.200
47.92000 157.665
47.96000 154.600
48.00000 145.871
48.04000 152.841
48.08000 156.962
48.12000 153.635
48.16000 146.075
48.20000 153.732
48.24000 154.724
48.28000 170.535
48.32000 158.506
48.36000 156.348
48.40000 162.187
48.44000 164.422
48.48000 158.697
48.52000 150.629
48.56000 166.718
48.60000 167.096
48.64000 161.964
48.68000 159.222
48.72000 154.052
48.76000 148.325
48.80000 153.320
48.84000 147.105
48.88000 147.488
48.92000 155.059
48.96000 158.007
49.00000 166.325
49.04000 159.986
49.08000 163.055
49.12000 157.738
49.16000 147.429
49.20000 151.456
49.24000 155.408
49.28000 158.295
49.32000 155.202
49.36000 149.513
49.40000 151.764
49.44000 147.685
49.48000 170.163
49.52000 163.529
49.56000 160.202
49.60000 158.078
49.64000 157.628
49.68000 160.795
49.72000 149.864
49.76000 149.711
49.80000 148.373
49.84000 157.548
49.88000 157.248
49.92000 144.068
49.96000 152.661
50.00000 149.343
50.04000 156.343
50.08000 149.458
50.12000 150.464
50.16000 150.954
50.20000 144.775
50.24000 140.574
50.28000 157.873
50.32000 154.336
50.36000 140.334
50.40000 153.111
50.44000 150.077
50.48000 160.965
50.52000 151.100
50.56000 165.262
50.60000 160.528
50.64000 166.094
50.68000 163.322
50.72000 156.953
50.76000 163.483
50.80000 161.485
50.84000 148.640
50.88000 160.131
50.92000 162.125
50.96000 158.031
51.00000 147.747
51.04000 149.454
51.08000 147.942
51.12000 147.670
51.16000 144.468
51.20000 139.211
51.24000 134.689
51.28000 146.984
51.32000 144.451
51.36000 134.182
51.40000 142.021
51.44000 148.711
51.48000 134.719
51.52000 146.636
51.56000 133.351
51.60000 133.182
51.64000 140.016
51.68000 149.313
51.72000 140.251
51.76000 137.926
51.80000 138.907
51.84000 140.927
51.88000 155.047
51.92000 139.851
51.96000 142.905
52.00000 141.086
52.04000 140.345
52.08000 150.185
52.12000 137.029
52.16000 147.359
52.20000 138.246
52.24000 147.307
52.28000 144.713
52.32000 144.643
52.36000 140.942
52.40000 144.641
52.44000 140.401
52.48000 132.359
52.52000 142.699
52.56000 140.059
52.60000 137.366
52.64000 136.714
52.68000 134.097
52.72000 146.257
52.76000 141.985
52.80000 133.901
52.84000 138.896
52.88000 142.264
52.92000 132.647
52.96000 142.810
53.00000 145.488
53.04000 136.520
53.08000 147.973
53.12000 147.062
53.16000 132.284
53.20000 146.806
53.24000 161.312
53.28000 150.927
53.32000 142.451
53.36000 158.098
53.40000 146.972
53.44000 150.229
53.48000 152.328
53.52000 147.765
53.56000 145.646
53.60000 141.749
53.64000 146.550
53.68000 145.646
53.72000 145.624
53.76000 139.902
53.80000 143.910
53.84000 141.615
53.88000 136.875
53.92000 144.979
53.96000 136.827
54.00000 129.209
54.04000 132.869
54.08000 131.770
54.12000 135.829
54.16000 133.674
54.20000 137.465
54.24000 131.699
54.28000 128.976
54.32000 147.701
54.36000 151.595
54.40000 142.445
54.44000 140.074
54.48000 125.972
54.52000 139.518
54.56000 127.616
54.60000 148.705
54.64000 144.722
54.68000 137.488
54.72000 136.743
54.76000 141.209
54.80000 139.859
54.84000 132.688
54.88000 142.859
54.92000 141.228
54.96000 141.399
55.00000 156.693
55.04000 140.796
55.08000 145.396
55.12000 139.124
55.16000 145.597
55.20000 149.309
55.24000 157.526
55.28000 156.036
55.32000 166.916
55.36000 157.969
55.40000 165.435
55.44000 171.182
55.48000 187.977
55.52000 197.234
55.56000 208.111
55.60000 231.831
55.64000 247.793
55.68000 268.800
55.72000 299.185
55.76000 328.783
55.80000 365.248
55.84000 385.967
55.88000 432.436
55.92000 437.727
55.96000 444.745
56.00000 451.761
56.04000 417.880
56.08000 393.931
56.12000 371.779
56.16000 332.135
56.20000 295.377
56.24000 276.270
56.28000 240.672
56.32000 217.281
56.36000 190.111
56.40000 182.093
56.44000 162.141
56.48000 164.453
56.52000 158.003
56.56000 161.818
56.60000 151.916
56.64000 136.085
56.68000 148.596
56.72000 135.558
56.76000 131.200
56.80000 148.500
56.84000 147.077
56.88000 134.417
56.92000 141.013
56.96000 131.929
57.00000 127.041
57.04000 134.402
57.08000 130.229
57.12000 122.539
57.16000 121.397
57.20000 127.670
57.24000 127.375
57.28000 127.550
57.32000 123.999
57.36000 122.511
57.40000 123.784
57.44000 124.114
57.48000 131.885
57.52000 117.981
57.56000 124.443
57.60000 119.296
57.64000 127.851
57.68000 124.739
57.72000 131.480
57.76000 125.333
57.80000 123.430
57.84000 133.438
57.88000 122.257
57.92000 123.860
57.96000 121.938
58.00000 125.294
58.04000 122.352
58.08000 126.431
58.12000 122.967
58.16000 125.867
58.20000 126.142
58.24000 121.396
58.28000 117.556
58.32000 120.349
58.36000 117.668
58.40000 118.698
58.44000 118.243
58.48000 123.696
58.52000 112.152
58.56000 122.801
58.60000 117.355
58.64000 120.743
58.68000 128.660
58.72000 124.669
58.76000 118.504
58.80000 118.764
58.84000 118.716
58.88000 118.530
58.92000 111.411
58.96000 117.073
59.00000 118.794
59.04000 114.657
59.08000 125.272
59.12000 125.550
59.16000 110.132
59.20000 119.530
59.24000 116.688
59.28000 117.472
59.32000 115.744
59.36000 123.285
59.40000 122.644
59.44000 118.197
59.48000 123.045
59.52000 118.127
59.56000 125.079
59.60000 113.112
59.64000 114.877
59.68000 114.555
59.72000 121.084
59.76000 116.963
59.80000 108.372
59.84000 123.870
59.88000 109.154
59.92000 116.803
59.96000 125.125
60.00000 117.991
60.04000 119.666
60.08000 117.268
60.12000 120.329
60.16000 121.484
60.20000 116.391
60.24000 117.615
60.28000 122.405
60.32000 113.456
60.36000 116.359
60.40000 109.008
60.44000 112.315
60.48000 116.160
60.52000 117.022
60.56000 118.913
60.60000 123.842
60.64000 122.729
60.68000 119.892
60.72000 117.742
60.76000 109.988
60.80000 121.643
60.84000 110.875
60.88000 111.618
60.92000 112.795
60.96000 118.970
61.00000 117.354
61.04000 121.503
61.08000 119.604
61.12000 131.457
61.16000 133.771
61.20000 124.340
61.24000 115.787
61.28000 122.280
61.32000 122.807
61.36000 128.257
61.40000 130.338
61.44000 127.897
61.48000 133.959
61.52000 148.430
61.56000 202.464
61.60000 252.623
61.64000 281.638
61.68000 283.827
61.72000 289.035
61.76000 268.375
61.80000 216.419
61.84000 171.088
61.88000 139.701
61.92000 148.194
61.96000 142.072
62.00000 130.586
62.04000 121.919
62.08000 128.211
62.12000 127.024
62.16000 123.060
62.20000 130.309
62.24000 128.324
62.28000 127.851
62.32000 126.878
62.36000 127.420
62.40000 121.228
62.44000 125.388
62.48000 122.460
62.52000 127.097
62.56000 130.865
62.60000 130.789
62.64000 133.050
62.68000 131.953
62.72000 136.088
62.76000 138.506
62.80000 128.838
62.84000 128.286
62.88000 127.328
62.92000 128.394
62.96000 141.870
63.00000 141.463
63.04000 132.927
63.08000 131.110
63.12000 134.204
63.16000 127.496
63.20000 137.690
63.24000 129.616
63.28000 132.002
63.32000 142.489
63.36000 135.805
63.40000 125.392
63.44000 133.063
63.48000 133.202
63.52000 133.933
63.56000 141.925
63.60000 134.527
63.64000 130.837
63.68000 130.931
63.72000 142.989
63.76000 131.956
63.80000 139.563
63.84000 144.773
63.88000 146.068
63.92000 143.628
63.96000 147.956
64.00000 143.405
64.04000 150.923
64.08000 141.217
64.12000 151.023
64.16000 146.319
64.20000 154.251
64.24000 155.371
64.28000 151.004
64.32000 156.673
64.36000 147.624
64.40000 155.256
64.44000 148.890
64.48000 150.071
64.52000 157.155
64.56000 166.090
64.60000 163.661
64.64000 167.042
64.68000 162.577
64.72000 175.279
64.76000 163.001
64.80000 168.460
64.84000 170.491
64.88000 187.733
64.92000 185.093
64.96000 172.219
65.00000 184.816
65.04000 186.434
65.08000 192.241
65.12000 193.963
65.16000 200.952
65.20000 192.841
65.24000 230.104
65.28000 228.683
65.32000 236.953
65.36000 239.869
65.40000 275.827
65.44000 263.228
65.48000 289.684
65.52000 283.668
65.56000 321.644
65.60000 357.049
65.64000 412.018
65.68000 549.664
65.72000 888.942
65.76000 1354.797
65.80000 1747.729
65.84000 1918.264
65.88000 1936.706
65.92000 1809.748
65.96000 1492.467
66.00000 1024.776
66.04000 650.001
66.08000 480.112
66.12000 390.282
66.16000 379.847
66.20000 356.155
66.24000 400.238
66.28000 453.428
66.32000 536.849
66.36000 597.222
66.40000 623.669
66.44000 608.396
66.48000 600.468
66.52000 524.709
66.56000 438.720
66.60000 376.441
66.64000 374.188
66.68000 339.846
66.72000 349.522
66.76000 342.784
66.80000 351.744
66.84000 331.790
66.88000 377.174
66.92000 365.941
66.96000 358.538
67.00000 359.069
67.04000 352.984
67.08000 372.584
67.12000 386.009
67.16000 369.438
67.20000 375.150
67.24000 389.005
67.28000 392.293
67.32000 394.154
67.36000 409.569
67.40000 409.765
67.44000 402.891
67.48000 417.090
67.52000 420.818
67.56000 438.368
67.60000 434.885
67.64000 439.419
67.68000 437.176
67.72000 445.438
67.76000 469.874
67.80000 460.933
67.84000 470.771
67.88000 456.952
67.92000 469.753
67.96000 469.395
68.00000 496.661
68.04000 491.858
68.08000 509.221
68.12000 534.546
68.16000 538.034
68.20000 544.025
68.24000 561.715
68.28000 546.644
68.32000 586.384
68.36000 604.385
68.40000 615.141
68.44000 642.751
68.48000 678.383
68.52000 721.599
68.56000 745.162
68.60000 812.329
68.64000 932.530
68.68000 1136.468
68.72000 1268.577
68.76000 1450.769
68.80000 1649.960
68.84000 1836.973
68.88000 2210.010
68.92000 3239.828
68.96000 8965.217
69.00000 20841.932
69.04000 33477.074
69.08000 40381.414
69.12000 42966.570
69.16000 45754.410
69.20000 45693.137
69.24000 36707.223
69.28000 26940.838
69.32000 21957.318
69.36000 20720.135
69.40000 17418.703
69.44000 10894.818
69.48000 4810.059
69.52000 2140.573
69.56000 1330.655
69.60000 1055.496
69.64000 909.954
69.68000 793.330
69.72000 714.372
69.76000 684.515
69.80000 625.017
69.84000 599.412
69.88000 583.064
69.92000 558.581
69.96000 503.258
70.00000 491.198