File: XRD/XRD/07-10-2025 Dep 6/XY Data/BTO_Mapping_Theta2Theta_07-10-2025_001_37_-39-126_-8-316.xy
20.00000 474.118
20.04000 467.061
20.08000 464.297
20.12000 461.679
20.16000 473.543
20.20000 468.480
20.24000 478.565
20.28000 467.749
20.32000 443.498
20.36000 468.704
20.40000 467.595
20.44000 470.511
20.48000 456.756
20.52000 461.069
20.56000 473.259
20.60000 456.304
20.64000 459.391
20.68000 448.611
20.72000 447.647
20.76000 458.332
20.80000 465.311
20.84000 470.197
20.88000 476.389
20.92000 493.398
20.96000 473.121
21.00000 479.993
21.04000 472.551
21.08000 485.647
21.12000 479.327
21.16000 484.604
21.20000 481.007
21.24000 467.576
21.28000 485.259
21.32000 473.716
21.36000 481.916
21.40000 451.579
21.44000 467.824
21.48000 480.671
21.52000 489.236
21.56000 492.559
21.60000 480.871
21.64000 521.758
21.68000 514.364
21.72000 548.615
21.76000 602.835
21.80000 657.921
21.84000 718.170
21.88000 754.888
21.92000 790.784
21.96000 807.768
22.00000 781.654
22.04000 760.940
22.08000 751.382
22.12000 682.339
22.16000 639.635
22.20000 580.811
22.24000 557.304
22.28000 528.934
22.32000 508.100
22.36000 505.452
22.40000 480.051
22.44000 464.982
22.48000 466.566
22.52000 468.953
22.56000 470.442
22.60000 452.039
22.64000 449.749
22.68000 430.833
22.72000 447.665
22.76000 444.039
22.80000 421.355
22.84000 431.602
22.88000 439.786
22.92000 415.241
22.96000 435.402
23.00000 435.342
23.04000 428.959
23.08000 427.020
23.12000 425.686
23.16000 437.345
23.20000 422.349
23.24000 416.329
23.28000 425.523
23.32000 415.438
23.36000 421.782
23.40000 418.063
23.44000 419.419
23.48000 394.805
23.52000 434.137
23.56000 412.282
23.60000 415.578
23.64000 408.244
23.68000 423.913
23.72000 414.284
23.76000 427.081
23.80000 433.444
23.84000 415.556
23.88000 405.358
23.92000 405.388
23.96000 434.760
24.00000 419.504
24.04000 421.794
24.08000 413.353
24.12000 408.788
24.16000 405.382
24.20000 410.291
24.24000 413.607
24.28000 396.801
24.32000 418.221
24.36000 423.165
24.40000 416.301
24.44000 409.711
24.48000 407.002
24.52000 400.942
24.56000 408.983
24.60000 420.253
24.64000 410.147
24.68000 411.937
24.72000 411.356
24.76000 413.282
24.80000 394.662
24.84000 378.267
24.88000 407.365
24.92000 394.589
24.96000 398.026
25.00000 393.011
25.04000 389.510
25.08000 411.587
25.12000 417.986
25.16000 396.435
25.20000 400.653
25.24000 403.170
25.28000 389.167
25.32000 379.082
25.36000 393.424
25.40000 400.368
25.44000 390.745
25.48000 373.237
25.52000 369.792
25.56000 401.679
25.60000 426.831
25.64000 392.694
25.68000 381.167
25.72000 388.108
25.76000 381.730
25.80000 391.398
25.84000 400.773
25.88000 399.931
25.92000 404.192
25.96000 388.309
26.00000 384.807
26.04000 392.530
26.08000 394.074
26.12000 382.837
26.16000 385.719
26.20000 382.870
26.24000 377.176
26.28000 381.276
26.32000 375.097
26.36000 379.583
26.40000 379.894
26.44000 381.815
26.48000 385.375
26.52000 406.151
26.56000 382.271
26.60000 369.506
26.64000 389.282
26.68000 370.335
26.72000 380.311
26.76000 392.432
26.80000 365.515
26.84000 363.865
26.88000 381.030
26.92000 364.896
26.96000 372.744
27.00000 372.720
27.04000 372.317
27.08000 371.199
27.12000 373.257
27.16000 351.546
27.20000 380.138
27.24000 367.948
27.28000 358.976
27.32000 369.531
27.36000 370.994
27.40000 365.272
27.44000 372.052
27.48000 403.337
27.52000 375.773
27.56000 366.880
27.60000 379.152
27.64000 365.220
27.68000 374.149
27.72000 363.681
27.76000 380.177
27.80000 364.533
27.84000 358.923
27.88000 366.471
27.92000 365.839
27.96000 369.596
28.00000 364.142
28.04000 369.996
28.08000 361.666
28.12000 359.895
28.16000 368.938
28.20000 375.666
28.24000 384.597
28.28000 373.108
28.32000 363.613
28.36000 362.615
28.40000 380.364
28.44000 368.484
28.48000 359.773
28.52000 367.605
28.56000 364.266
28.60000 352.313
28.64000 359.368
28.68000 355.118
28.72000 333.467
28.76000 343.880
28.80000 347.058
28.84000 339.666
28.88000 356.095
28.92000 347.478
28.96000 365.019
29.00000 345.419
29.04000 346.895
29.08000 354.627
29.12000 361.185
29.16000 353.117
29.20000 358.123
29.24000 333.142
29.28000 349.831
29.32000 348.739
29.36000 347.189
29.40000 367.280
29.44000 384.268
29.48000 357.532
29.52000 368.275
29.56000 383.831
29.60000 353.460
29.64000 370.093
29.68000 383.949
29.72000 378.074
29.76000 424.437
29.80000 424.010
29.84000 446.399
29.88000 469.974
29.92000 478.790
29.96000 478.702
30.00000 476.230
30.04000 497.977
30.08000 477.542
30.12000 456.695
30.16000 429.359
30.20000 432.361
30.24000 400.094
30.28000 426.247
30.32000 407.669
30.36000 411.668
30.40000 401.011
30.44000 388.645
30.48000 405.586
30.52000 379.764
30.56000 392.336
30.60000 401.493
30.64000 401.867
30.68000 392.241
30.72000 424.876
30.76000 432.940
30.80000 443.243
30.84000 479.685
30.88000 510.676
30.92000 601.829
30.96000 697.751
31.00000 866.392
31.04000 1084.507
31.08000 1422.378
31.12000 1842.306
31.16000 2335.198
31.20000 2920.814
31.24000 3289.526
31.28000 3595.192
31.32000 3687.071
31.36000 3588.238
31.40000 3204.363
31.44000 2792.600
31.48000 2295.336
31.52000 1755.113
31.56000 1371.929
31.60000 1087.484
31.64000 858.268
31.68000 690.655
31.72000 595.972
31.76000 516.986
31.80000 459.982
31.84000 431.258
31.88000 406.367
31.92000 369.009
31.96000 356.247
32.00000 359.711
32.04000 354.660
32.08000 333.982
32.12000 332.784
32.16000 330.960
32.20000 337.987
32.24000 340.287
32.28000 324.705
32.32000 323.038
32.36000 322.122
32.40000 324.300
32.44000 321.959
32.48000 335.849
32.52000 334.133
32.56000 326.891
32.60000 326.754
32.64000 315.406
32.68000 341.976
32.72000 308.767
32.76000 319.901
32.80000 383.674
32.84000 475.970
32.88000 589.621
32.92000 630.054
32.96000 667.798
33.00000 654.106
33.04000 613.606
33.08000 506.729
33.12000 416.236
33.16000 353.415
33.20000 315.123
33.24000 308.617
33.28000 305.150
33.32000 294.091
33.36000 306.994
33.40000 295.141
33.44000 286.719
33.48000 291.837
33.52000 283.601
33.56000 293.566
33.60000 288.096
33.64000 286.638
33.68000 293.232
33.72000 285.632
33.76000 280.232
33.80000 291.459
33.84000 283.022
33.88000 298.088
33.92000 281.571
33.96000 289.171
34.00000 278.781
34.04000 290.321
34.08000 286.122
34.12000 273.115
34.16000 277.032
34.20000 285.041
34.24000 287.668
34.28000 280.028
34.32000 274.961
34.36000 272.951
34.40000 285.375
34.44000 276.767
34.48000 285.194
34.52000 281.302
34.56000 275.551
34.60000 277.418
34.64000 269.289
34.68000 282.440
34.72000 270.820
34.76000 248.605
34.80000 282.842
34.84000 281.774
34.88000 269.866
34.92000 265.019
34.96000 273.141
35.00000 274.285
35.04000 278.747
35.08000 276.620
35.12000 269.712
35.16000 270.675
35.20000 260.299
35.24000 274.314
35.28000 262.463
35.32000 267.949
35.36000 264.016
35.40000 256.716
35.44000 259.885
35.48000 264.552
35.52000 268.419
35.56000 268.266
35.60000 273.454
35.64000 275.789
35.68000 263.573
35.72000 254.635
35.76000 259.844
35.80000 257.670
35.84000 262.955
35.88000 269.004
35.92000 250.901
35.96000 259.578
36.00000 246.073
36.04000 261.567
36.08000 246.813
36.12000 261.942
36.16000 252.112
36.20000 249.541
36.24000 248.647
36.28000 271.711
36.32000 249.320
36.36000 260.581
36.40000 245.903
36.44000 238.097
36.48000 237.890
36.52000 243.577
36.56000 254.132
36.60000 248.369
36.64000 248.989
36.68000 252.287
36.72000 263.879
36.76000 259.211
36.80000 250.520
36.84000 262.697
36.88000 254.176
36.92000 250.592
36.96000 257.844
37.00000 259.074
37.04000 257.620
37.08000 254.211
37.12000 255.588
37.16000 255.189
37.20000 251.786
37.24000 232.660
37.28000 251.921
37.32000 253.408
37.36000 257.896
37.40000 245.950
37.44000 251.349
37.48000 238.921
37.52000 255.698
37.56000 256.586
37.60000 248.684
37.64000 239.213
37.68000 231.715
37.72000 243.002
37.76000 253.375
37.80000 245.452
37.84000 260.356
37.88000 252.387
37.92000 247.402
37.96000 247.845
38.00000 243.947
38.04000 243.935
38.08000 249.665
38.12000 253.312
38.16000 252.317
38.20000 260.606
38.24000 272.965
38.28000 283.763
38.32000 300.647
38.36000 315.809
38.40000 349.374
38.44000 354.289
38.48000 379.802
38.52000 416.265
38.56000 431.062
38.60000 442.086
38.64000 449.704
38.68000 419.940
38.72000 428.489
38.76000 408.323
38.80000 362.186
38.84000 332.308
38.88000 318.440
38.92000 299.776
38.96000 271.625
39.00000 259.676
39.04000 254.533
39.08000 247.868
39.12000 257.254
39.16000 237.157
39.20000 238.760
39.24000 241.246
39.28000 222.490
39.32000 231.519
39.36000 232.244
39.40000 237.380
39.44000 245.583
39.48000 226.741
39.52000 229.422
39.56000 224.366
39.60000 224.677
39.64000 215.743
39.68000 233.815
39.72000 238.364
39.76000 231.015
39.80000 221.586
39.84000 226.771
39.88000 228.922
39.92000 224.527
39.96000 222.106
40.00000 229.350
40.04000 229.936
40.08000 233.185
40.12000 218.779
40.16000 227.100
40.20000 216.732
40.24000 208.509
40.28000 207.775
40.32000 207.129
40.36000 216.683
40.40000 209.754
40.44000 238.882
40.48000 217.500
40.52000 222.016
40.56000 217.242
40.60000 223.364
40.64000 227.716
40.68000 223.290
40.72000 211.539
40.76000 199.893
40.80000 210.488
40.84000 216.170
40.88000 218.231
40.92000 206.592
40.96000 217.694
41.00000 217.246
41.04000 210.275
41.08000 224.904
41.12000 203.937
41.16000 208.671
41.20000 213.430
41.24000 207.265
41.28000 198.210
41.32000 208.649
41.36000 206.832
41.40000 214.518
41.44000 207.361
41.48000 203.815
41.52000 195.958
41.56000 205.182
41.60000 209.993
41.64000 208.776
41.68000 211.078
41.72000 214.647
41.76000 202.404
41.80000 188.879
41.84000 193.303
41.88000 191.972
41.92000 212.860
41.96000 193.553
42.00000 201.344
42.04000 209.619
42.08000 211.926
42.12000 210.252
42.16000 202.607
42.20000 200.601
42.24000 189.711
42.28000 194.784
42.32000 204.631
42.36000 204.257
42.40000 193.585
42.44000 190.843
42.48000 202.705
42.52000 202.337
42.56000 206.992
42.60000 197.511
42.64000 209.278
42.68000 207.919
42.72000 204.370
42.76000 224.548
42.80000 203.531
42.84000 192.993
42.88000 209.187
42.92000 209.771
42.96000 200.128
43.00000 202.796
43.04000 191.325
43.08000 201.730
43.12000 206.466
43.16000 197.048
43.20000 204.061
43.24000 204.941
43.28000 215.513
43.32000 187.877
43.36000 201.282
43.40000 191.483
43.44000 193.944
43.48000 201.178
43.52000 207.971
43.56000 215.542
43.60000 205.408
43.64000 196.534
43.68000 197.231
43.72000 199.947
43.76000 196.337
43.80000 189.968
43.84000 197.850
43.88000 207.813
43.92000 200.642
43.96000 201.534
44.00000 203.043
44.04000 204.646
44.08000 190.389
44.12000 193.785
44.16000 191.899
44.20000 198.717
44.24000 209.736
44.28000 212.432
44.32000 214.000
44.36000 205.590
44.40000 232.245
44.44000 231.453
44.48000 256.190
44.52000 265.311
44.56000 294.642
44.60000 306.112
44.64000 344.595
44.68000 374.638
44.72000 402.500
44.76000 422.552
44.80000 438.164
44.84000 470.441
44.88000 472.635
44.92000 472.195
44.96000 447.356
45.00000 428.969
45.04000 418.981
45.08000 385.599
45.12000 358.246
45.16000 342.483
45.20000 326.928
45.24000 291.999
45.28000 286.526
45.32000 264.394
45.36000 259.131
45.40000 256.490
45.44000 244.429
45.48000 232.177
45.52000 216.048
45.56000 223.546
45.60000 213.287
45.64000 214.840
45.68000 199.669
45.72000 189.242
45.76000 211.433
45.80000 204.265
45.84000 199.211
45.88000 186.109
45.92000 182.616
45.96000 181.097
46.00000 188.186
46.04000 178.204
46.08000 186.606
46.12000 178.745
46.16000 173.364
46.20000 176.790
46.24000 166.434
46.28000 167.596
46.32000 176.284
46.36000 177.066
46.40000 173.827
46.44000 177.710
46.48000 175.405
46.52000 165.437
46.56000 169.504
46.60000 167.300
46.64000 180.475
46.68000 174.645
46.72000 167.136
46.76000 175.597
46.80000 167.037
46.84000 176.833
46.88000 171.996
46.92000 166.719
46.96000 177.063
47.00000 170.995
47.04000 169.052
47.08000 159.537
47.12000 160.489
47.16000 170.164
47.20000 162.985
47.24000 168.641
47.28000 163.303
47.32000 168.861
47.36000 157.407
47.40000 159.661
47.44000 165.210
47.48000 162.309
47.52000 153.810
47.56000 169.833
47.60000 170.054
47.64000 156.214
47.68000 157.154
47.72000 160.948
47.76000 160.791
47.80000 166.864
47.84000 157.840
47.88000 166.450
47.92000 160.757
47.96000 168.790
48.00000 167.329
48.04000 168.337
48.08000 155.465
48.12000 162.110
48.16000 160.562
48.20000 167.904
48.24000 171.419
48.28000 160.507
48.32000 164.289
48.36000 160.277
48.40000 163.466
48.44000 162.919
48.48000 172.718
48.52000 157.138
48.56000 164.195
48.60000 158.844
48.64000 157.423
48.68000 159.795
48.72000 154.169
48.76000 155.963
48.80000 165.735
48.84000 154.202
48.88000 162.982
48.92000 155.362
48.96000 150.991
49.00000 157.953
49.04000 142.980
49.08000 165.567
49.12000 168.300
49.16000 154.254
49.20000 160.910
49.24000 162.542
49.28000 155.768
49.32000 161.379
49.36000 156.758
49.40000 166.115
49.44000 152.029
49.48000 155.353
49.52000 154.111
49.56000 148.415
49.60000 148.247
49.64000 160.614
49.68000 157.406
49.72000 162.671
49.76000 157.958
49.80000 163.304
49.84000 152.906
49.88000 155.723
49.92000 166.199
49.96000 160.436
50.00000 149.057
50.04000 166.190
50.08000 177.340
50.12000 176.450
50.16000 181.156
50.20000 188.874
50.24000 185.382
50.28000 192.247
50.32000 210.728
50.36000 220.572
50.40000 226.102
50.44000 235.554
50.48000 239.885
50.52000 244.058
50.56000 247.741
50.60000 259.672
50.64000 233.708
50.68000 256.346
50.72000 240.687
50.76000 217.638
50.80000 206.773
50.84000 203.325
50.88000 198.781
50.92000 186.242
50.96000 177.529
51.00000 170.711
51.04000 161.509
51.08000 170.731
51.12000 156.031
51.16000 151.687
51.20000 151.666
51.24000 143.249
51.28000 160.497
51.32000 145.209
51.36000 145.762
51.40000 144.833
51.44000 140.031
51.48000 150.833
51.52000 140.422
51.56000 139.413
51.60000 148.182
51.64000 139.026
51.68000 138.341
51.72000 149.731
51.76000 133.566
51.80000 147.121
51.84000 139.770
51.88000 131.399
51.92000 139.777
51.96000 143.331
52.00000 136.565
52.04000 137.562
52.08000 140.081
52.12000 145.432
52.16000 138.777
52.20000 135.897
52.24000 144.893
52.28000 149.441
52.32000 137.814
52.36000 135.063
52.40000 143.749
52.44000 131.957
52.48000 138.601
52.52000 143.788
52.56000 137.555
52.60000 135.898
52.64000 143.573
52.68000 127.395
52.72000 142.333
52.76000 132.982
52.80000 132.871
52.84000 139.587
52.88000 145.980
52.92000 146.620
52.96000 146.421
53.00000 148.459
53.04000 155.190
53.08000 153.743
53.12000 154.625
53.16000 151.625
53.20000 148.472
53.24000 154.455
53.28000 148.548
53.32000 156.416
53.36000 147.708
53.40000 148.523
53.44000 137.836
53.48000 145.160
53.52000 134.149
53.56000 153.299
53.60000 143.375
53.64000 147.867
53.68000 141.818
53.72000 142.945
53.76000 148.656
53.80000 138.309
53.84000 135.361
53.88000 141.772
53.92000 138.571
53.96000 130.782
54.00000 127.353
54.04000 136.180
54.08000 135.519
54.12000 134.824
54.16000 132.856
54.20000 126.395
54.24000 134.255
54.28000 142.404
54.32000 134.697
54.36000 135.850
54.40000 141.009
54.44000 136.901
54.48000 145.659
54.52000 137.775
54.56000 135.814
54.60000 143.572
54.64000 129.350
54.68000 144.953
54.72000 140.347
54.76000 132.659
54.80000 143.080
54.84000 142.647
54.88000 152.599
54.92000 132.146
54.96000 137.780
55.00000 137.253
55.04000 143.452
55.08000 149.631
55.12000 148.355
55.16000 156.691
55.20000 159.020
55.24000 164.068
55.28000 178.101
55.32000 199.867
55.36000 219.333
55.40000 244.637
55.44000 251.875
55.48000 285.794
55.52000 335.215
55.56000 357.124
55.60000 396.184
55.64000 429.127
55.68000 440.368
55.72000 466.706
55.76000 477.435
55.80000 490.886
55.84000 475.192
55.88000 481.687
55.92000 461.407
55.96000 417.243
56.00000 409.189
56.04000 364.197
56.08000 330.075
56.12000 308.157
56.16000 265.596
56.20000 238.131
56.24000 218.151
56.28000 201.589
56.32000 188.440
56.36000 173.388
56.40000 172.400
56.44000 163.489
56.48000 158.766
56.52000 150.038
56.56000 136.635
56.60000 148.222
56.64000 150.681
56.68000 141.891
56.72000 138.991
56.76000 136.095
56.80000 130.876
56.84000 125.795
56.88000 133.724
56.92000 133.181
56.96000 133.638
57.00000 121.855
57.04000 117.580
57.08000 131.255
57.12000 135.465
57.16000 137.451
57.20000 135.631
57.24000 126.363
57.28000 129.939
57.32000 130.457
57.36000 119.461
57.40000 114.638
57.44000 121.870
57.48000 114.920
57.52000 131.194
57.56000 132.057
57.60000 133.316
57.64000 121.184
57.68000 114.845
57.72000 112.632
57.76000 118.121
57.80000 123.407
57.84000 124.816
57.88000 123.557
57.92000 118.314
57.96000 118.567
58.00000 128.893
58.04000 124.480
58.08000 114.219
58.12000 114.508
58.16000 125.811
58.20000 121.208
58.24000 116.057
58.28000 118.321
58.32000 119.301
58.36000 116.324
58.40000 113.983
58.44000 113.459
58.48000 121.028
58.52000 115.937
58.56000 113.831
58.60000 115.184
58.64000 122.914
58.68000 122.805
58.72000 115.577
58.76000 115.765
58.80000 120.593
58.84000 123.850
58.88000 119.467
58.92000 115.994
58.96000 110.900
59.00000 118.828
59.04000 103.273
59.08000 114.849
59.12000 121.435
59.16000 121.072
59.20000 113.327
59.24000 114.912
59.28000 112.517
59.32000 117.890
59.36000 113.261
59.40000 115.188
59.44000 115.112
59.48000 118.558
59.52000 108.823
59.56000 105.397
59.60000 115.324
59.64000 109.631
59.68000 123.184
59.72000 111.295
59.76000 116.260
59.80000 108.359
59.84000 129.195
59.88000 123.551
59.92000 117.673
59.96000 117.382
60.00000 123.762
60.04000 118.311
60.08000 121.546
60.12000 119.747
60.16000 124.978
60.20000 113.748
60.24000 119.894
60.28000 102.415
60.32000 120.447
60.36000 124.943
60.40000 126.263
60.44000 110.555
60.48000 108.798
60.52000 118.397
60.56000 115.888
60.60000 109.909
60.64000 113.313
60.68000 113.451
60.72000 117.375
60.76000 119.841
60.80000 124.367
60.84000 127.878
60.88000 117.019
60.92000 113.541
60.96000 118.462
61.00000 114.813
61.04000 116.930
61.08000 117.569
61.12000 110.854
61.16000 126.215
61.20000 138.566
61.24000 133.548
61.28000 123.294
61.32000 118.350
61.36000 134.263
61.40000 118.308
61.44000 140.876
61.48000 154.187
61.52000 189.297
61.56000 262.070
61.60000 325.843
61.64000 363.327
61.68000 409.189
61.72000 389.424
61.76000 349.752
61.80000 259.600
61.84000 204.407
61.88000 157.235
61.92000 145.265
61.96000 144.065
62.00000 136.268
62.04000 136.945
62.08000 137.667
62.12000 140.332
62.16000 144.747
62.20000 135.092
62.24000 138.237
62.28000 126.982
62.32000 134.136
62.36000 129.009
62.40000 134.875
62.44000 132.100
62.48000 127.644
62.52000 130.443
62.56000 137.148
62.60000 124.048
62.64000 131.975
62.68000 134.812
62.72000 128.670
62.76000 127.706
62.80000 136.459
62.84000 130.990
62.88000 126.619
62.92000 131.146
62.96000 135.062
63.00000 133.114
63.04000 139.312
63.08000 134.486
63.12000 144.497
63.16000 133.309
63.20000 133.653
63.24000 140.722
63.28000 135.637
63.32000 137.697
63.36000 134.588
63.40000 156.403
63.44000 150.021
63.48000 149.775
63.52000 141.127
63.56000 141.184
63.60000 144.721
63.64000 140.695
63.68000 149.742
63.72000 142.659
63.76000 147.138
63.80000 157.567
63.84000 154.910
63.88000 139.348
63.92000 152.549
63.96000 153.129
64.00000 150.193
64.04000 159.460
64.08000 151.261
64.12000 146.638
64.16000 157.340
64.20000 160.630
64.24000 156.304
64.28000 164.988
64.32000 153.354
64.36000 165.694
64.40000 174.920
64.44000 169.126
64.48000 170.823
64.52000 164.128
64.56000 177.018
64.60000 174.929
64.64000 178.968
64.68000 179.180
64.72000 198.794
64.76000 193.706
64.80000 201.828
64.84000 216.637
64.88000 204.377
64.92000 230.859
64.96000 246.224
65.00000 261.360
65.04000 272.877
65.08000 286.270
65.12000 316.556
65.16000 343.616
65.20000 357.754
65.24000 376.223
65.28000 398.926
65.32000 405.731
65.36000 415.560
65.40000 458.028
65.44000 454.281
65.48000 468.628
65.52000 483.944
65.56000 510.420
65.60000 561.922
65.64000 685.588
65.68000 931.346
65.72000 1506.526
65.76000 2269.480
65.80000 2785.175
65.84000 2925.076
65.88000 2961.509
65.92000 2711.656
65.96000 2132.914
66.00000 1419.012
66.04000 877.823
66.08000 628.989
66.12000 529.231
66.16000 494.741
66.20000 488.691
66.24000 522.779
66.28000 616.969
66.32000 744.088
66.36000 819.890
66.40000 838.948
66.44000 880.897
66.48000 802.135
66.52000 680.460
66.56000 552.686
66.60000 485.614
66.64000 432.193
66.68000 441.520
66.72000 407.762
66.76000 441.339
66.80000 419.898
66.84000 409.740
66.88000 430.177
66.92000 451.798
66.96000 419.028
67.00000 435.200
67.04000 451.187
67.08000 439.092
67.12000 434.722
67.16000 464.573
67.20000 464.630
67.24000 476.336
67.28000 469.339
67.32000 481.866
67.36000 493.151
67.40000 486.948
67.44000 496.055
67.48000 501.155
67.52000 506.813
67.56000 529.163
67.60000 509.382
67.64000 521.588
67.68000 543.220
67.72000 557.011
67.76000 535.445
67.80000 552.502
67.84000 554.094
67.88000 550.740
67.92000 560.463
67.96000 584.290
68.00000 579.228
68.04000 604.712
68.08000 618.215
68.12000 629.863
68.16000 643.399
68.20000 680.756
68.24000 669.870
68.28000 687.422
68.32000 678.993
68.36000 716.766
68.40000 738.149
68.44000 773.915
68.48000 805.516
68.52000 869.043
68.56000 961.182
68.60000 1071.859
68.64000 1277.917
68.68000 1534.737
68.72000 1847.735
68.76000 2085.740
68.80000 2442.143
68.84000 3003.892
68.88000 4220.453
68.92000 7062.648
68.96000 17996.137
69.00000 36417.633
69.04000 53676.027
69.08000 62811.961
69.12000 67055.336
69.16000 70110.727
69.20000 66397.969
69.24000 54212.340
69.28000 40809.465
69.32000 33846.582
69.36000 30534.188
69.40000 23942.141
69.44000 15045.149
69.48000 6794.368
69.52000 3017.039
69.56000 1761.622
69.60000 1352.231
69.64000 1101.090
69.68000 989.833
69.72000 852.246
69.76000 798.228
69.80000 706.336
69.84000 671.967
69.88000 639.216
69.92000 585.413
69.96000 547.995
70.00000 530.177