File: XRD/XRD/07-10-2025 Dep 6/XY Data/BTO_Mapping_Theta2Theta_07-10-2025_001_06_9-135_4-067.xy
20.00000 477.766
20.04000 461.479
20.08000 482.926
20.12000 447.348
20.16000 481.009
20.20000 489.853
20.24000 469.506
20.28000 458.319
20.32000 473.173
20.36000 470.668
20.40000 462.213
20.44000 464.848
20.48000 456.986
20.52000 454.486
20.56000 441.792
20.60000 456.065
20.64000 448.446
20.68000 459.111
20.72000 492.911
20.76000 452.764
20.80000 462.103
20.84000 456.699
20.88000 463.048
20.92000 473.729
20.96000 440.543
21.00000 466.347
21.04000 475.235
21.08000 471.020
21.12000 466.791
21.16000 459.265
21.20000 450.099
21.24000 457.912
21.28000 465.166
21.32000 448.824
21.36000 469.066
21.40000 464.774
21.44000 486.893
21.48000 456.315
21.52000 455.643
21.56000 468.050
21.60000 465.587
21.64000 459.064
21.68000 483.979
21.72000 457.784
21.76000 467.535
21.80000 462.648
21.84000 486.682
21.88000 497.175
21.92000 486.336
21.96000 500.193
22.00000 484.720
22.04000 502.251
22.08000 492.690
22.12000 487.015
22.16000 502.447
22.20000 506.934
22.24000 487.176
22.28000 501.286
22.32000 467.135
22.36000 483.622
22.40000 473.857
22.44000 454.774
22.48000 438.934
22.52000 461.796
22.56000 455.115
22.60000 452.043
22.64000 449.658
22.68000 445.141
22.72000 435.888
22.76000 437.976
22.80000 435.335
22.84000 440.133
22.88000 458.765
22.92000 450.386
22.96000 444.853
23.00000 434.986
23.04000 449.449
23.08000 425.376
23.12000 444.887
23.16000 441.316
23.20000 436.700
23.24000 437.578
23.28000 429.292
23.32000 433.320
23.36000 433.499
23.40000 443.170
23.44000 420.007
23.48000 428.806
23.52000 418.860
23.56000 447.214
23.60000 455.075
23.64000 446.326
23.68000 444.755
23.72000 462.783
23.76000 457.748
23.80000 478.263
23.84000 487.616
23.88000 495.661
23.92000 489.555
23.96000 501.896
24.00000 513.607
24.04000 505.694
24.08000 499.640
24.12000 502.921
24.16000 462.771
24.20000 454.548
24.24000 442.798
24.28000 446.171
24.32000 426.389
24.36000 435.172
24.40000 411.065
24.44000 409.299
24.48000 417.608
24.52000 398.722
24.56000 406.619
24.60000 406.982
24.64000 411.816
24.68000 402.886
24.72000 389.266
24.76000 402.715
24.80000 418.759
24.84000 424.315
24.88000 397.980
24.92000 411.436
24.96000 409.386
25.00000 397.612
25.04000 404.791
25.08000 386.286
25.12000 406.027
25.16000 390.411
25.20000 380.721
25.24000 391.025
25.28000 402.913
25.32000 404.088
25.36000 406.061
25.40000 411.560
25.44000 386.230
25.48000 383.687
25.52000 391.240
25.56000 397.279
25.60000 390.707
25.64000 392.741
25.68000 395.667
25.72000 423.788
25.76000 391.694
25.80000 394.655
25.84000 374.461
25.88000 396.658
25.92000 399.521
25.96000 388.956
26.00000 388.748
26.04000 395.665
26.08000 386.563
26.12000 395.350
26.16000 372.056
26.20000 382.603
26.24000 400.306
26.28000 384.231
26.32000 372.181
26.36000 387.365
26.40000 371.905
26.44000 385.329
26.48000 379.119
26.52000 380.601
26.56000 385.431
26.60000 378.885
26.64000 378.236
26.68000 372.377
26.72000 380.334
26.76000 363.589
26.80000 373.109
26.84000 361.525
26.88000 366.805
26.92000 365.826
26.96000 374.535
27.00000 382.186
27.04000 360.274
27.08000 351.066
27.12000 363.222
27.16000 363.954
27.20000 390.517
27.24000 373.795
27.28000 371.293
27.32000 386.854
27.36000 359.914
27.40000 375.365
27.44000 381.935
27.48000 379.924
27.52000 371.585
27.56000 365.510
27.60000 366.120
27.64000 356.926
27.68000 380.118
27.72000 364.561
27.76000 367.341
27.80000 372.893
27.84000 358.549
27.88000 358.682
27.92000 362.953
27.96000 354.161
28.00000 365.423
28.04000 361.177
28.08000 373.947
28.12000 363.858
28.16000 356.418
28.20000 352.058
28.24000 370.967
28.28000 381.143
28.32000 358.997
28.36000 361.946
28.40000 354.334
28.44000 359.482
28.48000 356.135
28.52000 342.151
28.56000 358.725
28.60000 351.891
28.64000 357.565
28.68000 347.890
28.72000 356.515
28.76000 358.694
28.80000 349.078
28.84000 361.674
28.88000 350.884
28.92000 358.520
28.96000 340.997
29.00000 354.192
29.04000 357.446
29.08000 358.752
29.12000 358.255
29.16000 354.738
29.20000 342.079
29.24000 335.326
29.28000 355.661
29.32000 347.126
29.36000 336.288
29.40000 356.193
29.44000 360.146
29.48000 352.818
29.52000 342.696
29.56000 371.762
29.60000 348.279
29.64000 366.203
29.68000 349.842
29.72000 341.454
29.76000 354.770
29.80000 369.392
29.84000 370.155
29.88000 381.506
29.92000 379.928
29.96000 378.273
30.00000 377.790
30.04000 391.495
30.08000 387.921
30.12000 371.985
30.16000 405.293
30.20000 380.108
30.24000 377.949
30.28000 386.732
30.32000 372.932
30.36000 379.052
30.40000 365.352
30.44000 362.085
30.48000 348.888
30.52000 361.767
30.56000 373.166
30.60000 360.154
30.64000 382.545
30.68000 368.629
30.72000 387.314
30.76000 366.841
30.80000 386.012
30.84000 385.741
30.88000 406.066
30.92000 413.251
30.96000 436.463
31.00000 481.908
31.04000 497.692
31.08000 537.953
31.12000 613.436
31.16000 683.819
31.20000 764.420
31.24000 888.899
31.28000 998.616
31.32000 1099.976
31.36000 1170.866
31.40000 1183.544
31.44000 1127.059
31.48000 1031.117
31.52000 965.905
31.56000 838.238
31.60000 718.845
31.64000 633.445
31.68000 553.354
31.72000 508.514
31.76000 447.020
31.80000 431.521
31.84000 420.919
31.88000 381.457
31.92000 375.549
31.96000 362.953
32.00000 360.381
32.04000 356.642
32.08000 356.357
32.12000 349.047
32.16000 353.819
32.20000 353.363
32.24000 336.236
32.28000 332.240
32.32000 334.611
32.36000 338.255
32.40000 334.394
32.44000 314.164
32.48000 327.394
32.52000 318.586
32.56000 337.335
32.60000 327.880
32.64000 319.370
32.68000 307.587
32.72000 324.113
32.76000 336.018
32.80000 337.436
32.84000 389.904
32.88000 437.322
32.92000 491.238
32.96000 539.463
33.00000 532.670
33.04000 501.889
33.08000 433.748
33.12000 379.823
33.16000 340.454
33.20000 310.560
33.24000 302.077
33.28000 308.017
33.32000 304.809
33.36000 303.176
33.40000 301.826
33.44000 300.538
33.48000 289.242
33.52000 298.196
33.56000 283.658
33.60000 309.240
33.64000 278.594
33.68000 299.955
33.72000 293.930
33.76000 301.516
33.80000 303.559
33.84000 293.764
33.88000 306.673
33.92000 287.218
33.96000 306.787
34.00000 318.084
34.04000 310.261
34.08000 316.569
34.12000 315.924
34.16000 322.619
34.20000 330.038
34.24000 317.980
34.28000 324.510
34.32000 335.777
34.36000 333.282
34.40000 344.877
34.44000 317.064
34.48000 331.456
34.52000 325.398
34.56000 310.458
34.60000 304.724
34.64000 291.446
34.68000 301.851
34.72000 281.654
34.76000 285.471
34.80000 294.011
34.84000 304.060
34.88000 273.816
34.92000 284.468
34.96000 266.094
35.00000 277.249
35.04000 267.426
35.08000 279.594
35.12000 281.203
35.16000 275.419
35.20000 264.692
35.24000 262.641
35.28000 274.422
35.32000 270.753
35.36000 264.538
35.40000 259.053
35.44000 274.417
35.48000 263.714
35.52000 269.072
35.56000 260.335
35.60000 262.098
35.64000 262.501
35.68000 285.688
35.72000 267.650
35.76000 264.939
35.80000 276.329
35.84000 264.599
35.88000 253.859
35.92000 253.587
35.96000 255.124
36.00000 263.451
36.04000 261.929
36.08000 249.017
36.12000 256.691
36.16000 254.929
36.20000 242.065
36.24000 246.151
36.28000 242.759
36.32000 249.343
36.36000 260.665
36.40000 247.995
36.44000 253.298
36.48000 237.878
36.52000 265.368
36.56000 253.163
36.60000 244.665
36.64000 258.648
36.68000 251.489
36.72000 242.668
36.76000 249.252
36.80000 259.971
36.84000 269.323
36.88000 267.578
36.92000 267.704
36.96000 257.891
37.00000 264.982
37.04000 279.130
37.08000 272.560
37.12000 287.171
37.16000 270.229
37.20000 245.176
37.24000 260.884
37.28000 262.902
37.32000 258.454
37.36000 244.188
37.40000 256.830
37.44000 254.469
37.48000 252.808
37.52000 256.301
37.56000 247.954
37.60000 246.041
37.64000 254.403
37.68000 254.196
37.72000 249.665
37.76000 246.204
37.80000 242.997
37.84000 247.232
37.88000 247.184
37.92000 251.807
37.96000 261.425
38.00000 247.147
38.04000 241.728
38.08000 258.290
38.12000 249.706
38.16000 256.973
38.20000 229.984
38.24000 264.363
38.28000 273.575
38.32000 278.124
38.36000 291.077
38.40000 321.157
38.44000 355.418
38.48000 401.178
38.52000 459.819
38.56000 548.498
38.60000 631.990
38.64000 695.911
38.68000 803.026
38.72000 803.208
38.76000 799.753
38.80000 726.166
38.84000 667.323
38.88000 587.452
38.92000 475.701
38.96000 402.958
39.00000 338.382
39.04000 309.773
39.08000 267.447
39.12000 273.025
39.16000 252.535
39.20000 238.706
39.24000 241.627
39.28000 241.710
39.32000 241.861
39.36000 235.995
39.40000 231.122
39.44000 234.933
39.48000 233.265
39.52000 217.593
39.56000 241.725
39.60000 244.705
39.64000 222.034
39.68000 232.503
39.72000 245.794
39.76000 213.217
39.80000 229.357
39.84000 221.512
39.88000 235.365
39.92000 228.031
39.96000 230.378
40.00000 216.373
40.04000 225.415
40.08000 223.335
40.12000 229.484
40.16000 230.112
40.20000 211.340
40.24000 218.522
40.28000 216.095
40.32000 228.901
40.36000 213.673
40.40000 213.416
40.44000 215.739
40.48000 230.101
40.52000 214.120
40.56000 218.693
40.60000 212.431
40.64000 234.117
40.68000 221.663
40.72000 206.669
40.76000 204.406
40.80000 218.981
40.84000 229.010
40.88000 210.338
40.92000 215.206
40.96000 217.842
41.00000 204.859
41.04000 208.773
41.08000 221.386
41.12000 217.817
41.16000 212.626
41.20000 192.987
41.24000 229.369
41.28000 203.393
41.32000 211.117
41.36000 212.068
41.40000 220.825
41.44000 211.479
41.48000 207.529
41.52000 206.651
41.56000 201.956
41.60000 206.969
41.64000 202.293
41.68000 213.858
41.72000 216.868
41.76000 207.767
41.80000 227.007
41.84000 202.233
41.88000 200.057
41.92000 221.254
41.96000 220.846
42.00000 221.566
42.04000 200.553
42.08000 215.835
42.12000 214.547
42.16000 216.854
42.20000 212.641
42.24000 214.777
42.28000 209.923
42.32000 214.862
42.36000 213.419
42.40000 208.817
42.44000 209.120
42.48000 220.400
42.52000 205.728
42.56000 212.649
42.60000 200.245
42.64000 205.214
42.68000 208.890
42.72000 195.735
42.76000 208.273
42.80000 199.404
42.84000 186.326
42.88000 204.343
42.92000 202.631
42.96000 191.735
43.00000 193.601
43.04000 195.877
43.08000 189.948
43.12000 196.970
43.16000 207.836
43.20000 195.033
43.24000 202.204
43.28000 190.701
43.32000 189.243
43.36000 202.093
43.40000 190.992
43.44000 194.738
43.48000 192.540
43.52000 192.278
43.56000 195.498
43.60000 200.736
43.64000 191.404
43.68000 180.820
43.72000 189.342
43.76000 177.848
43.80000 186.240
43.84000 193.334
43.88000 203.259
43.92000 184.572
43.96000 177.425
44.00000 200.905
44.04000 188.813
44.08000 188.594
44.12000 198.160
44.16000 187.564
44.20000 194.140
44.24000 198.600
44.28000 186.934
44.32000 205.380
44.36000 199.624
44.40000 202.923
44.44000 199.405
44.48000 201.603
44.52000 206.617
44.56000 197.316
44.60000 206.933
44.64000 200.777
44.68000 215.293
44.72000 209.761
44.76000 208.374
44.80000 225.025
44.84000 203.682
44.88000 214.888
44.92000 228.130
44.96000 221.765
45.00000 221.759
45.04000 229.953
45.08000 233.776
45.12000 236.758
45.16000 231.220
45.20000 220.323
45.24000 200.987
45.28000 207.632
45.32000 208.163
45.36000 217.888
45.40000 203.704
45.44000 196.179
45.48000 208.764
45.52000 215.364
45.56000 208.399
45.60000 201.243
45.64000 196.264
45.68000 198.601
45.72000 192.746
45.76000 189.866
45.80000 181.800
45.84000 175.147
45.88000 184.680
45.92000 172.795
45.96000 198.363
46.00000 182.387
46.04000 178.475
46.08000 176.718
46.12000 170.372
46.16000 175.417
46.20000 183.104
46.24000 168.940
46.28000 171.574
46.32000 177.003
46.36000 176.872
46.40000 182.331
46.44000 177.008
46.48000 176.968
46.52000 180.206
46.56000 179.774
46.60000 173.989
46.64000 165.404
46.68000 170.114
46.72000 156.357
46.76000 169.228
46.80000 173.496
46.84000 171.713
46.88000 172.187
46.92000 176.784
46.96000 172.596
47.00000 175.814
47.04000 151.955
47.08000 167.490
47.12000 172.594
47.16000 168.169
47.20000 166.916
47.24000 172.818
47.28000 168.836
47.32000 163.218
47.36000 163.022
47.40000 154.570
47.44000 159.143
47.48000 171.550
47.52000 168.822
47.56000 165.738
47.60000 159.395
47.64000 164.203
47.68000 157.915
47.72000 156.817
47.76000 159.577
47.80000 162.048
47.84000 168.881
47.88000 164.559
47.92000 145.026
47.96000 165.738
48.00000 152.040
48.04000 162.074
48.08000 146.070
48.12000 156.749
48.16000 157.256
48.20000 167.857
48.24000 161.323
48.28000 162.183
48.32000 162.409
48.36000 163.680
48.40000 149.999
48.44000 154.019
48.48000 162.953
48.52000 152.812
48.56000 159.531
48.60000 160.133
48.64000 149.640
48.68000 163.434
48.72000 150.085
48.76000 152.789
48.80000 149.256
48.84000 152.810
48.88000 163.977
48.92000 167.374
48.96000 160.708
49.00000 167.215
49.04000 160.082
49.08000 152.670
49.12000 159.898
49.16000 150.341
49.20000 155.329
49.24000 154.186
49.28000 153.551
49.32000 158.659
49.36000 164.439
49.40000 153.740
49.44000 151.937
49.48000 155.028
49.52000 144.975
49.56000 148.825
49.60000 148.828
49.64000 151.193
49.68000 153.505
49.72000 156.322
49.76000 152.103
49.80000 148.898
49.84000 162.714
49.88000 158.629
49.92000 154.393
49.96000 149.494
50.00000 143.814
50.04000 150.206
50.08000 154.915
50.12000 154.204
50.16000 152.394
50.20000 158.357
50.24000 154.879
50.28000 150.994
50.32000 152.750
50.36000 157.068
50.40000 155.906
50.44000 159.718
50.48000 158.786
50.52000 167.328
50.56000 164.449
50.60000 161.442
50.64000 151.980
50.68000 161.699
50.72000 158.266
50.76000 158.280
50.80000 153.376
50.84000 150.222
50.88000 146.535
50.92000 148.335
50.96000 153.302
51.00000 155.717
51.04000 149.445
51.08000 146.690
51.12000 140.602
51.16000 149.967
51.20000 141.649
51.24000 149.653
51.28000 148.088
51.32000 144.583
51.36000 142.553
51.40000 143.154
51.44000 142.267
51.48000 142.146
51.52000 135.172
51.56000 133.781
51.60000 139.873
51.64000 146.325
51.68000 141.900
51.72000 132.303
51.76000 137.544
51.80000 137.367
51.84000 148.972
51.88000 139.439
51.92000 144.680
51.96000 143.237
52.00000 135.017
52.04000 138.206
52.08000 141.261
52.12000 138.671
52.16000 140.533
52.20000 134.923
52.24000 137.942
52.28000 135.531
52.32000 131.849
52.36000 140.125
52.40000 135.703
52.44000 147.271
52.48000 141.295
52.52000 133.082
52.56000 136.483
52.60000 150.911
52.64000 134.560
52.68000 134.922
52.72000 142.559
52.76000 141.388
52.80000 144.322
52.84000 139.053
52.88000 133.479
52.92000 149.826
52.96000 154.377
53.00000 143.290
53.04000 146.758
53.08000 138.739
53.12000 161.024
53.16000 137.736
53.20000 158.436
53.24000 144.202
53.28000 149.728
53.32000 148.740
53.36000 146.826
53.40000 141.813
53.44000 142.825
53.48000 145.716
53.52000 152.318
53.56000 144.276
53.60000 145.393
53.64000 145.390
53.68000 139.264
53.72000 149.574
53.76000 141.500
53.80000 147.095
53.84000 143.135
53.88000 144.436
53.92000 133.023
53.96000 134.623
54.00000 139.341
54.04000 131.968
54.08000 136.684
54.12000 136.715
54.16000 137.307
54.20000 137.086
54.24000 130.814
54.28000 142.950
54.32000 134.644
54.36000 128.839
54.40000 142.018
54.44000 136.459
54.48000 130.728
54.52000 142.712
54.56000 131.838
54.60000 136.831
54.64000 142.697
54.68000 137.412
54.72000 132.940
54.76000 144.324
54.80000 136.162
54.84000 146.512
54.88000 133.569
54.92000 147.674
54.96000 140.224
55.00000 139.861
55.04000 146.570
55.08000 145.294
55.12000 147.742
55.16000 155.242
55.20000 145.906
55.24000 143.819
55.28000 147.125
55.32000 144.481
55.36000 157.899
55.40000 153.234
55.44000 177.930
55.48000 186.434
55.52000 205.320
55.56000 210.974
55.60000 230.228
55.64000 241.677
55.68000 270.430
55.72000 274.829
55.76000 323.168
55.80000 351.783
55.84000 385.464
55.88000 396.830
55.92000 441.527
55.96000 438.373
56.00000 425.642
56.04000 425.107
56.08000 391.294
56.12000 349.366
56.16000 308.684
56.20000 297.947
56.24000 264.033
56.28000 237.808
56.32000 205.185
56.36000 209.472
56.40000 195.395
56.44000 173.109
56.48000 172.324
56.52000 168.647
56.56000 141.011
56.60000 140.488
56.64000 137.200
56.68000 137.853
56.72000 136.343
56.76000 141.966
56.80000 131.233
56.84000 134.837
56.88000 138.175
56.92000 135.120
56.96000 120.191
57.00000 125.624
57.04000 137.797
57.08000 116.646
57.12000 121.313
57.16000 127.010
57.20000 122.563
57.24000 129.233
57.28000 137.478
57.32000 121.431
57.36000 134.204
57.40000 128.975
57.44000 119.336
57.48000 135.448
57.52000 138.587
57.56000 137.263
57.60000 132.215
57.64000 126.021
57.68000 125.138
57.72000 130.464
57.76000 127.318
57.80000 117.245
57.84000 124.088
57.88000 111.870
57.92000 125.375
57.96000 123.865
58.00000 121.172
58.04000 126.263
58.08000 123.397
58.12000 128.145
58.16000 127.924
58.20000 128.050
58.24000 132.923
58.28000 123.030
58.32000 118.024
58.36000 119.234
58.40000 120.632
58.44000 125.387
58.48000 114.176
58.52000 120.656
58.56000 124.677
58.60000 116.624
58.64000 117.649
58.68000 129.067
58.72000 121.639
58.76000 113.086
58.80000 117.644
58.84000 115.856
58.88000 119.445
58.92000 115.798
58.96000 113.080
59.00000 114.218
59.04000 116.390
59.08000 117.361
59.12000 119.644
59.16000 126.206
59.20000 120.704
59.24000 116.366
59.28000 121.742
59.32000 118.950
59.36000 118.482
59.40000 121.962
59.44000 119.229
59.48000 120.920
59.52000 123.179
59.56000 121.925
59.60000 115.668
59.64000 117.369
59.68000 116.246
59.72000 119.694
59.76000 114.648
59.80000 111.713
59.84000 115.602
59.88000 125.722
59.92000 119.103
59.96000 121.518
60.00000 114.958
60.04000 109.909
60.08000 121.706
60.12000 124.260
60.16000 110.167
60.20000 119.496
60.24000 120.116
60.28000 112.556
60.32000 120.662
60.36000 114.643
60.40000 115.756
60.44000 113.026
60.48000 114.469
60.52000 120.320
60.56000 106.476
60.60000 114.376
60.64000 119.684
60.68000 122.292
60.72000 115.772
60.76000 115.327
60.80000 121.441
60.84000 114.854
60.88000 122.633
60.92000 116.938
60.96000 116.875
61.00000 122.901
61.04000 123.078
61.08000 123.690
61.12000 123.582
61.16000 123.871
61.20000 117.066
61.24000 133.401
61.28000 128.985
61.32000 120.913
61.36000 120.781
61.40000 129.494
61.44000 123.227
61.48000 138.409
61.52000 152.592
61.56000 194.033
61.60000 238.049
61.64000 270.810
61.68000 289.677
61.72000 292.738
61.76000 272.823
61.80000 230.532
61.84000 163.018
61.88000 141.077
61.92000 135.137
61.96000 141.941
62.00000 120.083
62.04000 133.987
62.08000 124.368
62.12000 128.973
62.16000 128.074
62.20000 115.232
62.24000 119.225
62.28000 122.629
62.32000 122.904
62.36000 127.277
62.40000 124.528
62.44000 119.214
62.48000 122.271
62.52000 128.715
62.56000 131.085
62.60000 121.101
62.64000 129.605
62.68000 137.156
62.72000 124.717
62.76000 136.104
62.80000 131.506
62.84000 130.873
62.88000 125.427
62.92000 140.455
62.96000 137.307
63.00000 125.242
63.04000 132.073
63.08000 125.698
63.12000 136.609
63.16000 123.914
63.20000 131.113
63.24000 129.565
63.28000 142.675
63.32000 128.047
63.36000 120.658
63.40000 131.323
63.44000 135.602
63.48000 133.709
63.52000 152.763
63.56000 137.363
63.60000 138.673
63.64000 132.442
63.68000 140.561
63.72000 156.661
63.76000 146.587
63.80000 141.992
63.84000 133.573
63.88000 138.543
63.92000 157.183
63.96000 137.778
64.00000 135.612
64.04000 150.082
64.08000 147.515
64.12000 154.100
64.16000 149.170
64.20000 146.874
64.24000 144.015
64.28000 144.242
64.32000 148.305
64.36000 154.581
64.40000 158.770
64.44000 171.071
64.48000 158.548
64.52000 161.663
64.56000 168.551
64.60000 161.582
64.64000 158.840
64.68000 166.110
64.72000 165.223
64.76000 178.087
64.80000 169.303
64.84000 164.391
64.88000 175.564
64.92000 184.810
64.96000 181.205
65.00000 183.642
65.04000 196.414
65.08000 189.270
65.12000 200.182
65.16000 203.630
65.20000 214.553
65.24000 216.717
65.28000 224.813
65.32000 233.022
65.36000 242.488
65.40000 269.534
65.44000 262.390
65.48000 284.673
65.52000 288.809
65.56000 316.435
65.60000 351.010
65.64000 422.936
65.68000 551.039
65.72000 879.331
65.76000 1340.126
65.80000 1730.223
65.84000 1958.794
65.88000 1981.371
65.92000 1845.644
65.96000 1555.844
66.00000 1027.040
66.04000 639.568
66.08000 461.554
66.12000 400.246
66.16000 373.074
66.20000 381.838
66.24000 385.586
66.28000 442.463
66.32000 503.916
66.36000 589.833
66.40000 610.515
66.44000 625.023
66.48000 584.862
66.52000 530.997
66.56000 436.127
66.60000 387.962
66.64000 346.356
66.68000 341.203
66.72000 330.836
66.76000 352.133
66.80000 354.212
66.84000 342.711
66.88000 352.063
66.92000 354.795
66.96000 372.760
67.00000 356.917
67.04000 365.768
67.08000 387.672
67.12000 376.282
67.16000 389.487
67.20000 405.701
67.24000 371.694
67.28000 399.543
67.32000 412.345
67.36000 386.744
67.40000 421.758
67.44000 429.028
67.48000 420.955
67.52000 425.597
67.56000 453.385
67.60000 444.502
67.64000 443.235
67.68000 456.944
67.72000 441.127
67.76000 436.200
67.80000 466.005
67.84000 489.721
67.88000 482.913
67.92000 473.780
67.96000 481.300
68.00000 503.409
68.04000 517.044
68.08000 519.838
68.12000 522.117
68.16000 530.678
68.20000 538.402
68.24000 568.748
68.28000 580.913
68.32000 579.999
68.36000 587.918
68.40000 621.954
68.44000 637.428
68.48000 647.582
68.52000 701.625
68.56000 753.358
68.60000 801.000
68.64000 932.648
68.68000 1098.555
68.72000 1281.278
68.76000 1447.448
68.80000 1627.001
68.84000 1829.046
68.88000 2201.479
68.92000 3194.911
68.96000 8768.833
69.00000 20495.734
69.04000 33097.930
69.08000 40162.000
69.12000 42709.633
69.16000 45636.766
69.20000 45876.348
69.24000 37076.488
69.28000 27063.656
69.32000 22191.910
69.36000 20677.658
69.40000 17479.744
69.44000 11115.700
69.48000 4964.191
69.52000 2150.320
69.56000 1330.322
69.60000 1060.455
69.64000 923.848
69.68000 808.689
69.72000 748.117
69.76000 683.584
69.80000 627.416
69.84000 594.945
69.88000 562.080
69.92000 525.809
69.96000 498.901
70.00000 496.892