File: XRD/22-09-2025 Dep 2/XY Data/BTO_Mapping_Theta2Theta_22-09-2025_001_50_-24-940_-31-273.xy
20.00000 598.844
20.04000 572.271
20.08000 556.105
20.12000 577.998
20.16000 571.968
20.20000 583.377
20.24000 557.281
20.28000 563.548
20.32000 579.478
20.36000 575.168
20.40000 570.378
20.44000 561.292
20.48000 581.901
20.52000 547.535
20.56000 572.121
20.60000 567.540
20.64000 563.898
20.68000 564.587
20.72000 570.281
20.76000 554.176
20.80000 573.864
20.84000 576.868
20.88000 557.918
20.92000 557.687
20.96000 568.225
21.00000 555.837
21.04000 570.487
21.08000 559.276
21.12000 550.564
21.16000 563.576
21.20000 557.949
21.24000 548.737
21.28000 548.848
21.32000 552.069
21.36000 569.876
21.40000 551.969
21.44000 551.331
21.48000 587.797
21.52000 560.048
21.56000 577.949
21.60000 549.193
21.64000 574.050
21.68000 592.849
21.72000 595.324
21.76000 613.706
21.80000 646.575
21.84000 669.040
21.88000 721.348
21.92000 738.796
21.96000 787.050
22.00000 821.638
22.04000 805.354
22.08000 832.181
22.12000 784.262
22.16000 779.906
22.20000 772.242
22.24000 694.459
22.28000 657.856
22.32000 661.436
22.36000 619.239
22.40000 607.344
22.44000 577.269
22.48000 576.341
22.52000 576.161
22.56000 557.258
22.60000 565.996
22.64000 524.679
22.68000 529.777
22.72000 555.629
22.76000 531.664
22.80000 555.733
22.84000 542.831
22.88000 530.344
22.92000 546.362
22.96000 516.335
23.00000 522.553
23.04000 528.399
23.08000 503.491
23.12000 528.125
23.16000 513.589
23.20000 513.716
23.24000 507.995
23.28000 517.940
23.32000 485.169
23.36000 514.857
23.40000 507.980
23.44000 517.038
23.48000 492.091
23.52000 499.857
23.56000 550.966
23.60000 504.611
23.64000 494.943
23.68000 524.073
23.72000 500.792
23.76000 500.508
23.80000 507.975
23.84000 517.755
23.88000 495.740
23.92000 499.258
23.96000 497.711
24.00000 509.184
24.04000 496.677
24.08000 479.768
24.12000 499.927
24.16000 518.899
24.20000 497.989
24.24000 504.963
24.28000 487.639
24.32000 482.387
24.36000 492.260
24.40000 479.884
24.44000 490.436
24.48000 469.463
24.52000 492.584
24.56000 491.767
24.60000 479.433
24.64000 488.676
24.68000 472.676
24.72000 471.394
24.76000 485.833
24.80000 482.211
24.84000 485.522
24.88000 481.935
24.92000 492.457
24.96000 465.985
25.00000 478.838
25.04000 465.661
25.08000 488.172
25.12000 480.576
25.16000 486.466
25.20000 474.975
25.24000 479.433
25.28000 475.715
25.32000 484.800
25.36000 463.162
25.40000 471.751
25.44000 476.223
25.48000 485.515
25.52000 491.804
25.56000 465.381
25.60000 471.716
25.64000 454.373
25.68000 479.640
25.72000 465.101
25.76000 480.359
25.80000 476.787
25.84000 468.689
25.88000 462.379
25.92000 449.784
25.96000 474.664
26.00000 478.285
26.04000 477.186
26.08000 447.674
26.12000 472.090
26.16000 465.518
26.20000 480.195
26.24000 460.027
26.28000 464.172
26.32000 455.518
26.36000 461.926
26.40000 459.140
26.44000 486.201
26.48000 485.703
26.52000 460.323
26.56000 441.327
26.60000 446.717
26.64000 448.064
26.68000 453.305
26.72000 452.031
26.76000 447.904
26.80000 440.381
26.84000 458.081
26.88000 451.235
26.92000 439.035
26.96000 459.158
27.00000 449.127
27.04000 451.506
27.08000 446.909
27.12000 444.534
27.16000 454.791
27.20000 465.241
27.24000 450.484
27.28000 441.909
27.32000 441.660
27.36000 463.393
27.40000 433.416
27.44000 446.335
27.48000 447.779
27.52000 444.742
27.56000 439.615
27.60000 453.067
27.64000 458.032
27.68000 443.266
27.72000 455.470
27.76000 449.338
27.80000 437.795
27.84000 442.276
27.88000 440.611
27.92000 434.101
27.96000 440.582
28.00000 434.789
28.04000 419.196
28.08000 442.766
28.12000 425.308
28.16000 442.566
28.20000 435.386
28.24000 427.081
28.28000 454.518
28.32000 449.118
28.36000 441.839
28.40000 452.537
28.44000 427.677
28.48000 433.259
28.52000 427.794
28.56000 415.474
28.60000 441.371
28.64000 427.475
28.68000 427.522
28.72000 427.643
28.76000 407.887
28.80000 429.347
28.84000 431.893
28.88000 415.203
28.92000 431.026
28.96000 435.817
29.00000 422.964
29.04000 415.122
29.08000 419.394
29.12000 414.894
29.16000 418.195
29.20000 443.941
29.24000 423.429
29.28000 425.905
29.32000 416.018
29.36000 413.221
29.40000 424.799
29.44000 422.362
29.48000 419.397
29.52000 419.505
29.56000 417.124
29.60000 413.885
29.64000 414.985
29.68000 419.778
29.72000 429.743
29.76000 420.836
29.80000 436.559
29.84000 426.037
29.88000 442.986
29.92000 442.354
29.96000 447.695
30.00000 464.996
30.04000 479.213
30.08000 469.163
30.12000 453.079
30.16000 443.716
30.20000 442.515
30.24000 451.510
30.28000 445.252
30.32000 426.147
30.36000 439.351
30.40000 444.159
30.44000 429.070
30.48000 442.060
30.52000 442.410
30.56000 446.615
30.60000 419.036
30.64000 462.935
30.68000 440.603
30.72000 468.402
30.76000 438.320
30.80000 470.668
30.84000 481.288
30.88000 494.426
30.92000 510.154
30.96000 546.635
31.00000 584.424
31.04000 644.534
31.08000 749.709
31.12000 971.620
31.16000 1266.935
31.20000 1752.812
31.24000 2361.441
31.28000 3076.572
31.32000 3766.118
31.36000 4246.034
31.40000 4565.151
31.44000 4453.408
31.48000 4068.116
31.52000 3514.645
31.56000 2881.260
31.60000 2320.790
31.64000 1674.320
31.68000 1354.508
31.72000 1054.021
31.76000 859.972
31.80000 724.419
31.84000 630.812
31.88000 559.099
31.92000 515.938
31.96000 488.534
32.00000 470.589
32.04000 447.504
32.08000 445.179
32.12000 429.250
32.16000 417.331
32.20000 419.511
32.24000 429.501
32.28000 421.728
32.32000 428.153
32.36000 397.225
32.40000 414.750
32.44000 411.381
32.48000 403.079
32.52000 400.064
32.56000 400.181
32.60000 405.151
32.64000 406.309
32.68000 403.178
32.72000 394.287
32.76000 402.772
32.80000 419.044
32.84000 416.994
32.88000 444.343
32.92000 462.353
32.96000 509.430
33.00000 488.600
33.04000 458.278
33.08000 417.394
33.12000 412.657
33.16000 375.513
33.20000 388.802
33.24000 389.243
33.28000 367.787
33.32000 364.056
33.36000 364.775
33.40000 353.480
33.44000 354.490
33.48000 352.485
33.52000 346.882
33.56000 362.454
33.60000 346.380
33.64000 337.911
33.68000 359.958
33.72000 333.859
33.76000 357.999
33.80000 346.452
33.84000 339.305
33.88000 344.827
33.92000 335.869
33.96000 345.205
34.00000 326.371
34.04000 343.546
34.08000 331.363
34.12000 330.876
34.16000 346.439
34.20000 337.002
34.24000 329.415
34.28000 336.137
34.32000 334.933
34.36000 332.039
34.40000 325.079
34.44000 329.004
34.48000 342.800
34.52000 328.929
34.56000 330.900
34.60000 335.687
34.64000 330.560
34.68000 324.162
34.72000 342.488
34.76000 328.305
34.80000 325.960
34.84000 319.496
34.88000 320.170
34.92000 313.467
34.96000 328.465
35.00000 341.425
35.04000 335.588
35.08000 323.982
35.12000 323.038
35.16000 323.600
35.20000 326.772
35.24000 325.300
35.28000 332.933
35.32000 310.125
35.36000 317.613
35.40000 313.799
35.44000 324.337
35.48000 333.827
35.52000 317.761
35.56000 320.846
35.60000 305.098
35.64000 319.727
35.68000 304.620
35.72000 301.039
35.76000 307.511
35.80000 327.280
35.84000 301.157
35.88000 331.403
35.92000 311.845
35.96000 316.592
36.00000 315.016
36.04000 312.945
36.08000 315.779
36.12000 308.498
36.16000 299.111
36.20000 297.239
36.24000 299.545
36.28000 297.763
36.32000 290.983
36.36000 310.126
36.40000 316.076
36.44000 301.663
36.48000 309.639
36.52000 301.728
36.56000 314.735
36.60000 317.851
36.64000 304.357
36.68000 309.744
36.72000 313.883
36.76000 301.241
36.80000 288.306
36.84000 291.959
36.88000 301.844
36.92000 310.480
36.96000 307.033
37.00000 320.087
37.04000 309.265
37.08000 311.122
37.12000 302.368
37.16000 302.132
37.20000 304.556
37.24000 294.969
37.28000 324.216
37.32000 304.526
37.36000 300.454
37.40000 304.203
37.44000 305.599
37.48000 304.422
37.52000 295.581
37.56000 290.739
37.60000 279.955
37.64000 302.399
37.68000 309.450
37.72000 299.974
37.76000 305.200
37.80000 295.500
37.84000 304.812
37.88000 303.913
37.92000 294.719
37.96000 318.446
38.00000 302.669
38.04000 306.379
38.08000 312.965
38.12000 303.757
38.16000 319.226
38.20000 317.540
38.24000 326.538
38.28000 329.878
38.32000 348.302
38.36000 395.230
38.40000 379.217
38.44000 440.681
38.48000 467.791
38.52000 532.493
38.56000 587.643
38.60000 635.092
38.64000 701.626
38.68000 742.766
38.72000 728.570
38.76000 708.445
38.80000 638.076
38.84000 607.709
38.88000 533.655
38.92000 496.550
38.96000 458.709
39.00000 398.804
39.04000 389.392
39.08000 341.734
39.12000 304.614
39.16000 317.860
39.20000 313.744
39.24000 306.587
39.28000 310.231
39.32000 292.173
39.36000 282.780
39.40000 269.716
39.44000 300.699
39.48000 289.402
39.52000 284.724
39.56000 278.079
39.60000 287.997
39.64000 272.946
39.68000 289.494
39.72000 270.651
39.76000 260.161
39.80000 275.437
39.84000 276.557
39.88000 261.433
39.92000 270.854
39.96000 272.041
40.00000 267.462
40.04000 272.387
40.08000 269.365
40.12000 266.779
40.16000 254.132
40.20000 271.201
40.24000 284.041
40.28000 273.725
40.32000 267.656
40.36000 256.344
40.40000 266.067
40.44000 264.120
40.48000 266.186
40.52000 270.465
40.56000 264.097
40.60000 276.690
40.64000 259.613
40.68000 254.434
40.72000 247.184
40.76000 259.411
40.80000 251.901
40.84000 243.984
40.88000 254.178
40.92000 259.877
40.96000 264.322
41.00000 253.482
41.04000 244.783
41.08000 258.637
41.12000 255.058
41.16000 245.251
41.20000 244.477
41.24000 261.718
41.28000 266.435
41.32000 244.688
41.36000 249.781
41.40000 254.788
41.44000 238.643
41.48000 238.236
41.52000 250.212
41.56000 246.697
41.60000 256.803
41.64000 252.346
41.68000 243.612
41.72000 256.679
41.76000 244.748
41.80000 245.191
41.84000 239.280
41.88000 242.723
41.92000 233.651
41.96000 240.709
42.00000 248.475
42.04000 247.342
42.08000 240.751
42.12000 253.131
42.16000 226.865
42.20000 241.778
42.24000 231.051
42.28000 255.469
42.32000 248.886
42.36000 258.935
42.40000 243.110
42.44000 243.023
42.48000 234.431
42.52000 227.191
42.56000 237.433
42.60000 236.560
42.64000 238.245
42.68000 237.698
42.72000 216.784
42.76000 232.748
42.80000 229.409
42.84000 239.448
42.88000 220.460
42.92000 235.056
42.96000 234.362
43.00000 236.631
43.04000 239.705
43.08000 231.845
43.12000 226.511
43.16000 225.769
43.20000 225.322
43.24000 232.751
43.28000 229.597
43.32000 224.291
43.36000 229.547
43.40000 229.042
43.44000 238.833
43.48000 214.407
43.52000 233.265
43.56000 224.546
43.60000 229.893
43.64000 220.270
43.68000 215.607
43.72000 227.551
43.76000 229.152
43.80000 232.158
43.84000 236.216
43.88000 220.890
43.92000 224.454
43.96000 231.871
44.00000 239.418
44.04000 234.260
44.08000 220.827
44.12000 234.852
44.16000 244.142
44.20000 227.466
44.24000 226.950
44.28000 235.530
44.32000 238.546
44.36000 236.510
44.40000 238.691
44.44000 238.044
44.48000 250.845
44.52000 257.608
44.56000 261.174
44.60000 255.100
44.64000 283.337
44.68000 284.470
44.72000 316.883
44.76000 323.430
44.80000 366.712
44.84000 399.025
44.88000 413.301
44.92000 446.972
44.96000 446.080
45.00000 459.923
45.04000 456.138
45.08000 446.446
45.12000 458.469
45.16000 436.645
45.20000 407.278
45.24000 386.864
45.28000 348.243
45.32000 340.089
45.36000 322.793
45.40000 308.502
45.44000 305.264
45.48000 283.530
45.52000 281.248
45.56000 269.718
45.60000 272.344
45.64000 250.586
45.68000 260.582
45.72000 255.309
45.76000 243.367
45.80000 245.387
45.84000 226.788
45.88000 225.568
45.92000 227.598
45.96000 218.153
46.00000 225.747
46.04000 220.192
46.08000 220.777
46.12000 218.303
46.16000 209.086
46.20000 203.967
46.24000 211.901
46.28000 207.983
46.32000 211.762
46.36000 206.030
46.40000 209.994
46.44000 198.553
46.48000 208.244
46.52000 204.473
46.56000 199.267
46.60000 203.055
46.64000 195.430
46.68000 199.743
46.72000 206.743
46.76000 196.971
46.80000 203.736
46.84000 194.446
46.88000 203.567
46.92000 216.948
46.96000 200.578
47.00000 205.986
47.04000 198.376
47.08000 205.670
47.12000 205.735
47.16000 199.051
47.20000 200.566
47.24000 203.511
47.28000 203.267
47.32000 193.470
47.36000 198.244
47.40000 191.700
47.44000 194.642
47.48000 197.695
47.52000 197.331
47.56000 182.886
47.60000 185.157
47.64000 185.816
47.68000 177.580
47.72000 179.155
47.76000 185.297
47.80000 193.549
47.84000 192.159
47.88000 186.416
47.92000 196.314
47.96000 193.378
48.00000 173.322
48.04000 185.215
48.08000 176.285
48.12000 180.367
48.16000 195.479
48.20000 175.079
48.24000 189.485
48.28000 185.707
48.32000 180.022
48.36000 180.925
48.40000 175.088
48.44000 197.480
48.48000 185.587
48.52000 184.040
48.56000 188.144
48.60000 181.097
48.64000 193.776
48.68000 191.163
48.72000 177.601
48.76000 177.838
48.80000 186.173
48.84000 174.719
48.88000 182.770
48.92000 184.489
48.96000 188.100
49.00000 184.021
49.04000 173.061
49.08000 181.813
49.12000 180.699
49.16000 187.060
49.20000 185.608
49.24000 184.821
49.28000 183.997
49.32000 189.163
49.36000 176.116
49.40000 184.678
49.44000 176.697
49.48000 189.134
49.52000 187.462
49.56000 173.742
49.60000 175.481
49.64000 178.370
49.68000 186.833
49.72000 172.639
49.76000 181.874
49.80000 183.187
49.84000 176.863
49.88000 174.173
49.92000 184.325
49.96000 175.252
50.00000 183.235
50.04000 181.572
50.08000 176.540
50.12000 175.285
50.16000 184.337
50.20000 194.045
50.24000 181.171
50.28000 194.244
50.32000 208.236
50.36000 204.971
50.40000 230.204
50.44000 226.956
50.48000 240.389
50.52000 260.684
50.56000 274.863
50.60000 284.493
50.64000 281.491
50.68000 284.932
50.72000 290.348
50.76000 288.905
50.80000 272.500
50.84000 267.940
50.88000 270.586
50.92000 242.544
50.96000 229.215
51.00000 226.495
51.04000 228.467
51.08000 217.999
51.12000 215.816
51.16000 197.310
51.20000 191.588
51.24000 188.769
51.28000 183.970
51.32000 181.545
51.36000 188.588
51.40000 180.882
51.44000 182.264
51.48000 183.760
51.52000 171.611
51.56000 187.729
51.60000 183.442
51.64000 182.627
51.68000 168.459
51.72000 173.634
51.76000 167.903
51.80000 158.857
51.84000 154.656
51.88000 172.189
51.92000 167.907
51.96000 161.359
52.00000 167.467
52.04000 168.367
52.08000 167.432
52.12000 157.067
52.16000 162.054
52.20000 167.124
52.24000 156.795
52.28000 164.674
52.32000 169.281
52.36000 162.280
52.40000 163.833
52.44000 159.677
52.48000 173.297
52.52000 163.517
52.56000 166.695
52.60000 163.172
52.64000 161.210
52.68000 182.223
52.72000 164.879
52.76000 176.699
52.80000 155.467
52.84000 164.498
52.88000 159.582
52.92000 165.557
52.96000 166.409
53.00000 149.565
53.04000 161.542
53.08000 164.122
53.12000 158.774
53.16000 169.598
53.20000 164.224
53.24000 165.916
53.28000 165.145
53.32000 164.884
53.36000 163.904
53.40000 167.601
53.44000 167.199
53.48000 165.562
53.52000 168.585
53.56000 165.882
53.60000 164.469
53.64000 162.080
53.68000 155.755
53.72000 173.994
53.76000 168.370
53.80000 164.431
53.84000 178.136
53.88000 149.803
53.92000 162.108
53.96000 166.798
54.00000 166.089
54.04000 162.775
54.08000 154.781
54.12000 160.793
54.16000 155.232
54.20000 154.371
54.24000 176.318
54.28000 151.105
54.32000 167.140
54.36000 155.908
54.40000 161.074
54.44000 164.336
54.48000 164.364
54.52000 163.452
54.56000 158.458
54.60000 170.922
54.64000 155.734
54.68000 162.132
54.72000 164.052
54.76000 160.074
54.80000 164.278
54.84000 168.607
54.88000 157.925
54.92000 165.552
54.96000 164.874
55.00000 164.006
55.04000 161.348
55.08000 169.404
55.12000 164.459
55.16000 174.184
55.20000 173.858
55.24000 182.118
55.28000 182.545
55.32000 174.332
55.36000 181.306
55.40000 189.574
55.44000 199.939
55.48000 215.207
55.52000 231.652
55.56000 249.622
55.60000 283.677
55.64000 312.595
55.68000 356.278
55.72000 406.405
55.76000 433.539
55.80000 483.013
55.84000 527.611
55.88000 540.523
55.92000 554.598
55.96000 550.487
56.00000 531.574
56.04000 481.165
56.08000 475.482
56.12000 413.963
56.16000 387.440
56.20000 333.479
56.24000 313.068
56.28000 277.211
56.32000 264.758
56.36000 239.885
56.40000 223.695
56.44000 204.268
56.48000 208.167
56.52000 190.386
56.56000 186.436
56.60000 194.492
56.64000 175.131
56.68000 179.193
56.72000 167.701
56.76000 158.734
56.80000 166.553
56.84000 165.015
56.88000 146.697
56.92000 158.325
56.96000 153.738
57.00000 163.753
57.04000 154.168
57.08000 150.441
57.12000 150.804
57.16000 134.478
57.20000 152.319
57.24000 144.937
57.28000 145.590
57.32000 151.237
57.36000 151.423
57.40000 153.187
57.44000 144.044
57.48000 149.345
57.52000 143.014
57.56000 144.739
57.60000 141.139
57.64000 140.207
57.68000 144.517
57.72000 155.031
57.76000 142.484
57.80000 138.253
57.84000 147.120
57.88000 145.305
57.92000 137.876
57.96000 142.706
58.00000 136.526
58.04000 153.631
58.08000 149.919
58.12000 143.927
58.16000 140.024
58.20000 133.003
58.24000 149.305
58.28000 143.711
58.32000 144.318
58.36000 135.783
58.40000 146.340
58.44000 141.011
58.48000 142.511
58.52000 140.064
58.56000 143.259
58.60000 151.230
58.64000 140.966
58.68000 139.857
58.72000 132.518
58.76000 131.551
58.80000 142.310
58.84000 131.056
58.88000 133.151
58.92000 140.236
58.96000 146.955
59.00000 137.616
59.04000 133.845
59.08000 135.735
59.12000 134.659
59.16000 134.604
59.20000 131.944
59.24000 138.202
59.28000 132.474
59.32000 144.907
59.36000 144.684
59.40000 133.123
59.44000 143.282
59.48000 135.305
59.52000 130.539
59.56000 133.155
59.60000 152.042
59.64000 136.240
59.68000 135.567
59.72000 130.978
59.76000 130.700
59.80000 137.402
59.84000 129.687
59.88000 134.770
59.92000 131.965
59.96000 136.797
60.00000 149.040
60.04000 147.141
60.08000 140.150
60.12000 141.003
60.16000 134.279
60.20000 144.230
60.24000 133.803
60.28000 130.177
60.32000 137.763
60.36000 133.537
60.40000 139.066
60.44000 131.605
60.48000 133.157
60.52000 142.249
60.56000 141.710
60.60000 133.843
60.64000 132.607
60.68000 133.654
60.72000 134.043
60.76000 129.134
60.80000 127.919
60.84000 125.485
60.88000 137.152
60.92000 138.836
60.96000 140.240
61.00000 139.382
61.04000 138.488
61.08000 141.599
61.12000 146.166
61.16000 140.112
61.20000 141.679
61.24000 133.850
61.28000 142.668
61.32000 143.831
61.36000 135.685
61.40000 141.262
61.44000 149.615
61.48000 152.128
61.52000 172.105
61.56000 216.721
61.60000 290.499
61.64000 345.049
61.68000 366.655
61.72000 374.059
61.76000 370.473
61.80000 320.465
61.84000 242.567
61.88000 187.170
61.92000 161.144
61.96000 152.795
62.00000 147.845
62.04000 149.453
62.08000 149.983
62.12000 145.373
62.16000 142.459
62.20000 149.483
62.24000 140.190
62.28000 144.046
62.32000 144.081
62.36000 149.303
62.40000 146.254
62.44000 160.164
62.48000 160.665
62.52000 153.655
62.56000 148.859
62.60000 147.476
62.64000 154.108
62.68000 143.549
62.72000 149.968
62.76000 135.450
62.80000 159.321
62.84000 131.612
62.88000 139.010
62.92000 145.316
62.96000 149.454
63.00000 146.121
63.04000 155.292
63.08000 149.414
63.12000 142.214
63.16000 151.228
63.20000 151.050
63.24000 152.600
63.28000 159.407
63.32000 161.803
63.36000 152.792
63.40000 147.358
63.44000 164.771
63.48000 149.503
63.52000 150.715
63.56000 156.056
63.60000 151.467
63.64000 142.219
63.68000 152.506
63.72000 160.522
63.76000 156.605
63.80000 144.107
63.84000 146.467
63.88000 154.782
63.92000 168.641
63.96000 165.794
64.00000 168.391
64.04000 157.747
64.08000 170.475
64.12000 168.964
64.16000 159.874
64.20000 172.057
64.24000 172.828
64.28000 178.539
64.32000 164.695
64.36000 165.370
64.40000 166.563
64.44000 169.183
64.48000 168.244
64.52000 179.548
64.56000 172.927
64.60000 168.492
64.64000 181.809
64.68000 176.903
64.72000 178.785
64.76000 173.445
64.80000 183.022
64.84000 194.942
64.88000 197.164
64.92000 187.708
64.96000 196.767
65.00000 210.810
65.04000 214.142
65.08000 211.508
65.12000 244.615
65.16000 240.388
65.20000 261.275
65.24000 282.444
65.28000 307.542
65.32000 317.248
65.36000 359.290
65.40000 389.584
65.44000 419.691
65.48000 446.294
65.52000 474.711
65.56000 504.487
65.60000 534.763
65.64000 546.135
65.68000 621.876
65.72000 779.673
65.76000 1055.297
65.80000 1365.737
65.84000 1579.684
65.88000 1642.556
65.92000 1660.663
65.96000 1493.797
66.00000 1130.235
66.04000 785.403
66.08000 537.763
66.12000 442.873
66.16000 381.318
66.20000 381.744
66.24000 394.049
66.28000 399.139
66.32000 465.904
66.36000 529.199
66.40000 592.325
66.44000 607.058
66.48000 606.638
66.52000 543.752
66.56000 481.544
66.60000 422.268
66.64000 382.245
66.68000 362.469
66.72000 365.837
66.76000 359.912
66.80000 355.882
66.84000 395.574
66.88000 398.907
66.92000 395.181
66.96000 388.086
67.00000 413.949
67.04000 409.494
67.08000 420.576
67.12000 417.613
67.16000 424.771
67.20000 428.007
67.24000 445.479
67.28000 448.085
67.32000 450.374
67.36000 461.264
67.40000 488.245
67.44000 472.285
67.48000 487.157
67.52000 502.860
67.56000 513.396
67.60000 529.754
67.64000 522.501
67.68000 548.371
67.72000 530.316
67.76000 552.396
67.80000 583.110
67.84000 574.261
67.88000 590.644
67.92000 584.515
67.96000 605.497
68.00000 633.172
68.04000 640.211
68.08000 658.059
68.12000 659.428
68.16000 701.121
68.20000 707.688
68.24000 705.919
68.28000 748.693
68.32000 759.839
68.36000 814.100
68.40000 849.060
68.44000 899.375
68.48000 933.527
68.52000 1008.002
68.56000 1065.390
68.60000 1185.920
68.64000 1399.681
68.68000 1701.695
68.72000 2043.641
68.76000 2398.955
68.80000 2836.219
68.84000 3421.225
68.88000 4457.055
68.92000 7148.973
68.96000 15212.413
69.00000 35972.309
69.04000 65641.945
69.08000 88106.008
69.12000 95062.836
69.16000 98236.008
69.20000 100215.555
69.24000 90581.336
69.28000 72757.055
69.32000 56833.359
69.36000 49156.457
69.40000 42552.914
69.44000 29917.486
69.48000 16092.462
69.52000 7052.574
69.56000 3603.486
69.60000 2397.577
69.64000 1900.394
69.68000 1641.508
69.72000 1413.274
69.76000 1266.676
69.80000 1148.322
69.84000 1078.220
69.88000 1008.763
69.92000 926.649
69.96000 896.694
70.00000 847.442