File: XRD/22-09-2025 Dep 2/XY Data/BTO_Mapping_Theta2Theta_22-09-2025_001_34_-27-029_13-017.xy
20.00000 575.511
20.04000 566.455
20.08000 568.230
20.12000 551.181
20.16000 563.430
20.20000 557.271
20.24000 569.325
20.28000 555.118
20.32000 562.856
20.36000 553.713
20.40000 557.131
20.44000 585.562
20.48000 572.059
20.52000 589.095
20.56000 559.678
20.60000 555.324
20.64000 570.642
20.68000 572.203
20.72000 574.806
20.76000 559.729
20.80000 578.803
20.84000 547.321
20.88000 567.891
20.92000 575.172
20.96000 575.336
21.00000 579.676
21.04000 570.211
21.08000 582.442
21.12000 550.988
21.16000 547.074
21.20000 564.221
21.24000 562.935
21.28000 561.332
21.32000 573.975
21.36000 572.291
21.40000 569.903
21.44000 570.423
21.48000 561.519
21.52000 585.506
21.56000 574.396
21.60000 593.994
21.64000 618.628
21.68000 630.121
21.72000 647.329
21.76000 665.443
21.80000 730.306
21.84000 741.184
21.88000 811.936
21.92000 855.055
21.96000 872.720
22.00000 889.515
22.04000 910.283
22.08000 855.435
22.12000 821.956
22.16000 779.279
22.20000 737.897
22.24000 698.030
22.28000 682.548
22.32000 616.377
22.36000 605.020
22.40000 593.607
22.44000 587.897
22.48000 578.531
22.52000 559.280
22.56000 564.271
22.60000 551.021
22.64000 524.325
22.68000 528.008
22.72000 534.517
22.76000 543.182
22.80000 533.820
22.84000 533.038
22.88000 530.387
22.92000 522.455
22.96000 531.482
23.00000 524.220
23.04000 500.169
23.08000 528.021
23.12000 507.778
23.16000 520.739
23.20000 505.268
23.24000 512.542
23.28000 528.324
23.32000 524.614
23.36000 506.728
23.40000 512.044
23.44000 502.952
23.48000 507.727
23.52000 494.720
23.56000 513.579
23.60000 512.392
23.64000 504.442
23.68000 501.787
23.72000 494.264
23.76000 519.425
23.80000 505.850
23.84000 515.619
23.88000 535.487
23.92000 503.466
23.96000 507.480
24.00000 497.521
24.04000 498.368
24.08000 492.895
24.12000 498.001
24.16000 516.757
24.20000 501.441
24.24000 496.832
24.28000 498.189
24.32000 498.930
24.36000 498.367
24.40000 496.866
24.44000 509.503
24.48000 490.445
24.52000 483.583
24.56000 503.934
24.60000 500.987
24.64000 486.659
24.68000 499.454
24.72000 498.451
24.76000 500.379
24.80000 498.363
24.84000 490.947
24.88000 490.622
24.92000 481.118
24.96000 495.767
25.00000 485.629
25.04000 484.823
25.08000 494.766
25.12000 476.344
25.16000 494.137
25.20000 470.070
25.24000 473.616
25.28000 474.828
25.32000 463.430
25.36000 476.795
25.40000 475.405
25.44000 484.873
25.48000 488.340
25.52000 466.927
25.56000 474.483
25.60000 487.527
25.64000 465.706
25.68000 468.386
25.72000 460.820
25.76000 495.108
25.80000 473.630
25.84000 465.478
25.88000 460.485
25.92000 489.797
25.96000 483.478
26.00000 466.154
26.04000 464.468
26.08000 461.969
26.12000 459.938
26.16000 464.278
26.20000 445.320
26.24000 458.189
26.28000 479.534
26.32000 466.054
26.36000 469.629
26.40000 470.680
26.44000 473.985
26.48000 443.830
26.52000 458.638
26.56000 473.175
26.60000 455.070
26.64000 447.405
26.68000 474.059
26.72000 437.335
26.76000 435.629
26.80000 451.794
26.84000 458.524
26.88000 468.047
26.92000 453.884
26.96000 457.921
27.00000 459.498
27.04000 442.258
27.08000 453.957
27.12000 454.692
27.16000 449.140
27.20000 459.573
27.24000 448.516
27.28000 455.891
27.32000 431.474
27.36000 449.644
27.40000 453.037
27.44000 463.166
27.48000 450.830
27.52000 457.447
27.56000 441.202
27.60000 449.404
27.64000 435.396
27.68000 430.387
27.72000 457.364
27.76000 448.110
27.80000 443.461
27.84000 462.715
27.88000 430.229
27.92000 435.249
27.96000 429.211
28.00000 435.473
28.04000 446.374
28.08000 431.525
28.12000 436.064
28.16000 451.601
28.20000 450.244
28.24000 451.385
28.28000 431.911
28.32000 435.040
28.36000 445.798
28.40000 441.175
28.44000 411.691
28.48000 427.753
28.52000 427.486
28.56000 442.258
28.60000 419.633
28.64000 435.776
28.68000 438.691
28.72000 433.961
28.76000 405.385
28.80000 437.741
28.84000 431.516
28.88000 415.081
28.92000 440.660
28.96000 426.990
29.00000 417.710
29.04000 409.659
29.08000 439.577
29.12000 427.468
29.16000 420.379
29.20000 423.133
29.24000 413.700
29.28000 416.295
29.32000 442.024
29.36000 406.889
29.40000 428.077
29.44000 408.361
29.48000 420.663
29.52000 432.786
29.56000 409.539
29.60000 401.550
29.64000 421.275
29.68000 416.352
29.72000 450.240
29.76000 423.295
29.80000 439.793
29.84000 444.834
29.88000 449.558
29.92000 477.108
29.96000 453.672
30.00000 464.396
30.04000 479.587
30.08000 472.531
30.12000 455.346
30.16000 453.131
30.20000 439.732
30.24000 435.557
30.28000 432.528
30.32000 438.245
30.36000 437.049
30.40000 433.567
30.44000 438.231
30.48000 436.412
30.52000 461.942
30.56000 437.503
30.60000 449.348
30.64000 459.317
30.68000 439.266
30.72000 446.773
30.76000 451.647
30.80000 459.062
30.84000 496.267
30.88000 491.780
30.92000 550.252
30.96000 593.593
31.00000 674.868
31.04000 826.004
31.08000 1068.142
31.12000 1495.928
31.16000 2014.700
31.20000 2659.497
31.24000 3382.149
31.28000 3875.287
31.32000 4232.896
31.36000 4276.221
31.40000 4060.040
31.44000 3537.702
31.48000 2939.242
31.52000 2287.382
31.56000 1766.350
31.60000 1342.897
31.64000 1061.948
31.68000 870.421
31.72000 707.177
31.76000 628.924
31.80000 582.469
31.84000 512.246
31.88000 485.837
31.92000 469.564
31.96000 452.643
32.00000 440.885
32.04000 439.132
32.08000 417.847
32.12000 420.726
32.16000 425.930
32.20000 413.356
32.24000 399.282
32.28000 408.861
32.32000 432.961
32.36000 421.095
32.40000 417.185
32.44000 411.502
32.48000 391.874
32.52000 402.262
32.56000 405.642
32.60000 399.427
32.64000 388.522
32.68000 393.063
32.72000 394.441
32.76000 382.041
32.80000 400.350
32.84000 407.909
32.88000 413.689
32.92000 414.857
32.96000 407.860
33.00000 421.010
33.04000 393.713
33.08000 386.260
33.12000 388.888
33.16000 379.504
33.20000 374.892
33.24000 370.635
33.28000 351.534
33.32000 348.290
33.36000 365.158
33.40000 349.624
33.44000 358.269
33.48000 352.975
33.52000 363.629
33.56000 366.532
33.60000 362.617
33.64000 344.906
33.68000 339.804
33.72000 346.943
33.76000 352.705
33.80000 355.261
33.84000 348.575
33.88000 336.550
33.92000 337.193
33.96000 348.538
34.00000 366.747
34.04000 343.829
34.08000 356.593
34.12000 332.243
34.16000 328.890
34.20000 354.142
34.24000 333.812
34.28000 341.516
34.32000 331.316
34.36000 339.037
34.40000 355.697
34.44000 316.397
34.48000 327.839
34.52000 326.525
34.56000 332.639
34.60000 324.482
34.64000 329.046
34.68000 318.989
34.72000 344.692
34.76000 335.570
34.80000 321.060
34.84000 331.232
34.88000 329.046
34.92000 329.677
34.96000 318.117
35.00000 316.263
35.04000 330.503
35.08000 334.413
35.12000 327.379
35.16000 315.869
35.20000 323.559
35.24000 336.022
35.28000 308.512
35.32000 316.479
35.36000 320.449
35.40000 319.542
35.44000 325.717
35.48000 310.766
35.52000 306.080
35.56000 299.543
35.60000 314.035
35.64000 312.602
35.68000 320.205
35.72000 322.024
35.76000 317.857
35.80000 313.460
35.84000 314.048
35.88000 316.960
35.92000 302.759
35.96000 305.228
36.00000 316.700
36.04000 317.041
36.08000 309.458
36.12000 313.367
36.16000 312.598
36.20000 311.302
36.24000 307.118
36.28000 317.646
36.32000 305.613
36.36000 312.532
36.40000 310.200
36.44000 299.427
36.48000 308.620
36.52000 310.437
36.56000 304.816
36.60000 321.239
36.64000 312.959
36.68000 310.675
36.72000 306.293
36.76000 306.328
36.80000 313.869
36.84000 312.239
36.88000 315.513
36.92000 322.292
36.96000 312.727
37.00000 308.630
37.04000 313.242
37.08000 308.908
37.12000 293.477
37.16000 302.237
37.20000 291.073
37.24000 325.699
37.28000 311.587
37.32000 318.386
37.36000 322.713
37.40000 319.061
37.44000 308.366
37.48000 309.160
37.52000 294.642
37.56000 305.091
37.60000 307.574
37.64000 308.616
37.68000 304.036
37.72000 298.998
37.76000 304.527
37.80000 305.697
37.84000 303.649
37.88000 303.910
37.92000 318.146
37.96000 322.723
38.00000 313.171
38.04000 335.843
38.08000 310.739
38.12000 304.761
38.16000 350.441
38.20000 348.364
38.24000 352.908
38.28000 399.682
38.32000 385.060
38.36000 435.049
38.40000 461.371
38.44000 500.689
38.48000 550.009
38.52000 615.234
38.56000 654.406
38.60000 702.576
38.64000 692.974
38.68000 688.309
38.72000 650.783
38.76000 623.950
38.80000 585.283
38.84000 476.045
38.88000 437.407
38.92000 404.215
38.96000 384.755
39.00000 358.127
39.04000 345.963
39.08000 338.260
39.12000 310.441
39.16000 305.587
39.20000 297.645
39.24000 299.203
39.28000 290.838
39.32000 293.922
39.36000 278.467
39.40000 284.124
39.44000 276.223
39.48000 290.191
39.52000 292.774
39.56000 277.861
39.60000 284.860
39.64000 287.966
39.68000 274.842
39.72000 284.507
39.76000 267.869
39.80000 288.517
39.84000 295.195
39.88000 278.887
39.92000 264.835
39.96000 261.198
40.00000 277.825
40.04000 282.158
40.08000 266.449
40.12000 272.974
40.16000 267.113
40.20000 272.651
40.24000 279.199
40.28000 269.360
40.32000 269.259
40.36000 259.271
40.40000 281.691
40.44000 265.810
40.48000 268.042
40.52000 269.758
40.56000 269.229
40.60000 263.371
40.64000 264.296
40.68000 264.940
40.72000 267.237
40.76000 279.315
40.80000 259.622
40.84000 259.143
40.88000 271.741
40.92000 249.679
40.96000 261.629
41.00000 271.065
41.04000 261.883
41.08000 252.075
41.12000 246.693
41.16000 255.572
41.20000 243.762
41.24000 260.411
41.28000 245.911
41.32000 260.113
41.36000 251.281
41.40000 246.212
41.44000 259.543
41.48000 249.797
41.52000 257.633
41.56000 255.191
41.60000 241.716
41.64000 256.289
41.68000 261.773
41.72000 252.299
41.76000 240.888
41.80000 241.396
41.84000 243.499
41.88000 247.319
41.92000 242.784
41.96000 258.466
42.00000 250.498
42.04000 255.584
42.08000 245.854
42.12000 256.505
42.16000 249.037
42.20000 239.759
42.24000 228.461
42.28000 241.163
42.32000 229.860
42.36000 252.571
42.40000 229.396
42.44000 246.187
42.48000 240.492
42.52000 235.933
42.56000 238.005
42.60000 239.049
42.64000 245.946
42.68000 230.874
42.72000 244.879
42.76000 238.813
42.80000 250.786
42.84000 240.923
42.88000 205.065
42.92000 246.540
42.96000 230.847
43.00000 248.805
43.04000 252.312
43.08000 244.963
43.12000 243.921
43.16000 231.184
43.20000 232.045
43.24000 230.264
43.28000 228.749
43.32000 233.196
43.36000 232.605
43.40000 235.978
43.44000 227.685
43.48000 241.846
43.52000 240.761
43.56000 240.320
43.60000 231.101
43.64000 216.974
43.68000 224.269
43.72000 220.916
43.76000 231.028
43.80000 239.804
43.84000 242.618
43.88000 245.399
43.92000 237.432
43.96000 234.612
44.00000 229.595
44.04000 225.460
44.08000 218.115
44.12000 235.693
44.16000 232.116
44.20000 256.283
44.24000 255.420
44.28000 246.808
44.32000 247.217
44.36000 257.954
44.40000 256.469
44.44000 273.241
44.48000 274.526
44.52000 293.782
44.56000 312.610
44.60000 327.897
44.64000 347.008
44.68000 361.181
44.72000 403.195
44.76000 431.871
44.80000 471.194
44.84000 513.286
44.88000 495.302
44.92000 525.819
44.96000 556.720
45.00000 539.473
45.04000 526.774
45.08000 468.362
45.12000 451.063
45.16000 411.096
45.20000 405.508
45.24000 391.296
45.28000 386.397
45.32000 335.647
45.36000 309.980
45.40000 304.584
45.44000 290.074
45.48000 290.964
45.52000 284.072
45.56000 252.720
45.60000 272.824
45.64000 245.340
45.68000 244.985
45.72000 243.153
45.76000 230.775
45.80000 232.901
45.84000 237.386
45.88000 224.377
45.92000 226.882
45.96000 226.845
46.00000 226.647
46.04000 224.296
46.08000 214.379
46.12000 210.883
46.16000 220.699
46.20000 212.231
46.24000 206.430
46.28000 216.526
46.32000 203.153
46.36000 212.046
46.40000 205.219
46.44000 202.707
46.48000 212.058
46.52000 200.399
46.56000 211.656
46.60000 212.671
46.64000 219.915
46.68000 210.052
46.72000 204.354
46.76000 202.242
46.80000 203.644
46.84000 210.690
46.88000 202.500
46.92000 192.103
46.96000 201.359
47.00000 201.334
47.04000 185.871
47.08000 197.465
47.12000 186.372
47.16000 202.833
47.20000 196.597
47.24000 206.691
47.28000 188.138
47.32000 197.123
47.36000 193.039
47.40000 194.399
47.44000 195.903
47.48000 192.233
47.52000 194.046
47.56000 181.231
47.60000 197.208
47.64000 186.083
47.68000 182.336
47.72000 205.391
47.76000 203.453
47.80000 197.597
47.84000 188.326
47.88000 181.529
47.92000 189.028
47.96000 186.739
48.00000 189.059
48.04000 189.589
48.08000 178.124
48.12000 179.808
48.16000 190.908
48.20000 188.051
48.24000 182.284
48.28000 193.566
48.32000 190.389
48.36000 176.458
48.40000 181.312
48.44000 188.259
48.48000 191.386
48.52000 185.750
48.56000 196.425
48.60000 175.792
48.64000 180.942
48.68000 192.366
48.72000 190.428
48.76000 185.894
48.80000 178.551
48.84000 173.372
48.88000 178.660
48.92000 172.710
48.96000 175.889
49.00000 175.243
49.04000 189.809
49.08000 183.013
49.12000 174.025
49.16000 179.360
49.20000 183.580
49.24000 173.911
49.28000 180.216
49.32000 183.534
49.36000 178.152
49.40000 187.258
49.44000 172.878
49.48000 187.360
49.52000 193.097
49.56000 188.513
49.60000 179.504
49.64000 189.470
49.68000 179.087
49.72000 180.706
49.76000 183.543
49.80000 178.085
49.84000 184.979
49.88000 178.199
49.92000 180.683
49.96000 203.819
50.00000 185.929
50.04000 198.001
50.08000 187.913
50.12000 194.283
50.16000 199.212
50.20000 196.406
50.24000 201.345
50.28000 214.095
50.32000 217.164
50.36000 221.352
50.40000 250.390
50.44000 247.371
50.48000 256.299
50.52000 266.869
50.56000 275.702
50.60000 276.180
50.64000 281.026
50.68000 279.360
50.72000 267.188
50.76000 260.175
50.80000 250.060
50.84000 221.502
50.88000 239.034
50.92000 218.723
50.96000 233.460
51.00000 216.121
51.04000 206.144
51.08000 202.929
51.12000 197.078
51.16000 191.864
51.20000 186.358
51.24000 192.083
51.28000 186.230
51.32000 171.861
51.36000 176.846
51.40000 167.952
51.44000 189.575
51.48000 168.604
51.52000 175.143
51.56000 167.467
51.60000 171.727
51.64000 182.195
51.68000 179.345
51.72000 175.819
51.76000 167.916
51.80000 164.478
51.84000 167.169
51.88000 179.881
51.92000 169.010
51.96000 169.204
52.00000 168.797
52.04000 167.457
52.08000 182.500
52.12000 165.953
52.16000 159.902
52.20000 162.447
52.24000 160.911
52.28000 163.572
52.32000 164.488
52.36000 165.515
52.40000 167.023
52.44000 165.568
52.48000 169.078
52.52000 173.706
52.56000 165.373
52.60000 182.318
52.64000 176.779
52.68000 165.354
52.72000 170.883
52.76000 174.686
52.80000 154.416
52.84000 169.618
52.88000 163.930
52.92000 158.808
52.96000 175.722
53.00000 177.209
53.04000 166.685
53.08000 168.928
53.12000 160.220
53.16000 167.232
53.20000 177.623
53.24000 167.184
53.28000 162.664
53.32000 172.987
53.36000 167.597
53.40000 175.072
53.44000 157.923
53.48000 165.355
53.52000 167.768
53.56000 165.040
53.60000 165.002
53.64000 172.342
53.68000 161.159
53.72000 174.917
53.76000 164.153
53.80000 164.582
53.84000 159.473
53.88000 168.889
53.92000 162.474
53.96000 166.464
54.00000 163.543
54.04000 165.823
54.08000 160.176
54.12000 159.508
54.16000 161.497
54.20000 160.358
54.24000 153.662
54.28000 168.411
54.32000 168.544
54.36000 164.446
54.40000 159.794
54.44000 159.579
54.48000 165.754
54.52000 151.212
54.56000 162.599
54.60000 164.584
54.64000 158.091
54.68000 167.651
54.72000 175.806
54.76000 170.835
54.80000 172.097
54.84000 165.872
54.88000 160.674
54.92000 166.592
54.96000 167.176
55.00000 177.040
55.04000 174.349
55.08000 161.307
55.12000 170.711
55.16000 181.775
55.20000 172.801
55.24000 189.399
55.28000 197.883
55.32000 201.747
55.36000 230.063
55.40000 227.083
55.44000 246.785
55.48000 259.216
55.52000 285.682
55.56000 338.630
55.60000 353.543
55.64000 419.311
55.68000 460.232
55.72000 504.696
55.76000 522.637
55.80000 531.234
55.84000 563.649
55.88000 545.346
55.92000 511.395
55.96000 484.198
56.00000 448.828
56.04000 397.924
56.08000 361.315
56.12000 329.200
56.16000 306.245
56.20000 276.425
56.24000 236.947
56.28000 251.856
56.32000 233.109
56.36000 203.445
56.40000 214.382
56.44000 203.139
56.48000 186.578
56.52000 180.051
56.56000 181.826
56.60000 177.538
56.64000 167.533
56.68000 165.822
56.72000 167.417
56.76000 173.310
56.80000 157.380
56.84000 168.255
56.88000 154.367
56.92000 162.368
56.96000 153.465
57.00000 158.668
57.04000 150.200
57.08000 146.746
57.12000 143.840
57.16000 154.635
57.20000 140.753
57.24000 140.396
57.28000 152.506
57.32000 148.182
57.36000 145.205
57.40000 157.885
57.44000 144.183
57.48000 147.540
57.52000 137.003
57.56000 139.904
57.60000 147.261
57.64000 152.608
57.68000 141.122
57.72000 137.999
57.76000 141.762
57.80000 156.416
57.84000 151.746
57.88000 148.766
57.92000 156.066
57.96000 149.507
58.00000 135.723
58.04000 147.120
58.08000 144.157
58.12000 156.482
58.16000 138.342
58.20000 141.844
58.24000 150.680
58.28000 139.007
58.32000 146.539
58.36000 134.817
58.40000 138.479
58.44000 138.220
58.48000 139.328
58.52000 144.198
58.56000 143.170
58.60000 139.491
58.64000 130.819
58.68000 142.427
58.72000 137.207
58.76000 136.848
58.80000 140.976
58.84000 136.720
58.88000 143.356
58.92000 132.840
58.96000 128.947
59.00000 146.786
59.04000 136.412
59.08000 135.497
59.12000 132.826
59.16000 132.061
59.20000 132.860
59.24000 145.668
59.28000 138.153
59.32000 142.368
59.36000 140.935
59.40000 136.872
59.44000 144.452
59.48000 144.258
59.52000 136.402
59.56000 138.013
59.60000 135.387
59.64000 137.729
59.68000 134.198
59.72000 139.398
59.76000 138.937
59.80000 132.256
59.84000 138.065
59.88000 136.680
59.92000 137.605
59.96000 144.393
60.00000 133.973
60.04000 132.360
60.08000 143.639
60.12000 136.352
60.16000 141.425
60.20000 138.221
60.24000 138.135
60.28000 136.586
60.32000 135.557
60.36000 135.343
60.40000 141.713
60.44000 125.919
60.48000 132.870
60.52000 133.184
60.56000 125.877
60.60000 130.503
60.64000 129.514
60.68000 131.390
60.72000 139.032
60.76000 134.829
60.80000 139.724
60.84000 134.085
60.88000 137.906
60.92000 140.313
60.96000 138.395
61.00000 141.063
61.04000 136.440
61.08000 140.991
61.12000 148.753
61.16000 135.583
61.20000 140.931
61.24000 137.318
61.28000 142.847
61.32000 143.591
61.36000 141.089
61.40000 140.588
61.44000 148.081
61.48000 160.774
61.52000 194.608
61.56000 239.245
61.60000 324.401
61.64000 349.057
61.68000 382.345
61.72000 381.256
61.76000 357.919
61.80000 268.275
61.84000 208.756
61.88000 173.788
61.92000 154.626
61.96000 154.050
62.00000 151.579
62.04000 148.629
62.08000 150.232
62.12000 145.452
62.16000 143.248
62.20000 145.806
62.24000 158.943
62.28000 140.243
62.32000 150.707
62.36000 147.571
62.40000 158.679
62.44000 142.187
62.48000 148.231
62.52000 134.402
62.56000 141.985
62.60000 147.879
62.64000 146.871
62.68000 146.309
62.72000 142.557
62.76000 151.025
62.80000 146.449
62.84000 145.948
62.88000 151.470
62.92000 149.208
62.96000 147.204
63.00000 151.914
63.04000 146.656
63.08000 147.770
63.12000 154.383
63.16000 154.064
63.20000 146.962
63.24000 142.935
63.28000 148.079
63.32000 141.785
63.36000 147.391
63.40000 148.686
63.44000 155.024
63.48000 143.110
63.52000 150.383
63.56000 170.181
63.60000 157.135
63.64000 160.066
63.68000 148.499
63.72000 151.544
63.76000 161.550
63.80000 160.322
63.84000 159.270
63.88000 157.440
63.92000 165.215
63.96000 162.249
64.00000 161.219
64.04000 173.905
64.08000 160.746
64.12000 155.860
64.16000 169.922
64.20000 162.621
64.24000 162.043
64.28000 172.440
64.32000 170.654
64.36000 177.791
64.40000 173.022
64.44000 168.415
64.48000 177.468
64.52000 187.225
64.56000 177.599
64.60000 173.457
64.64000 176.579
64.68000 186.930
64.72000 182.711
64.76000 182.414
64.80000 184.469
64.84000 188.841
64.88000 203.132
64.92000 202.849
64.96000 211.892
65.00000 234.865
65.04000 228.317
65.08000 245.195
65.12000 247.137
65.16000 276.979
65.20000 307.190
65.24000 321.880
65.28000 379.280
65.32000 393.919
65.36000 429.359
65.40000 450.188
65.44000 460.201
65.48000 467.609
65.52000 481.230
65.56000 474.488
65.60000 478.408
65.64000 535.436
65.68000 622.485
65.72000 827.458
65.76000 1189.575
65.80000 1473.577
65.84000 1551.921
65.88000 1630.594
65.92000 1540.613
65.96000 1361.128
66.00000 911.026
66.04000 603.337
66.08000 454.569
66.12000 388.629
66.16000 372.976
66.20000 373.474
66.24000 384.493
66.28000 445.717
66.32000 513.733
66.36000 551.945
66.40000 586.059
66.44000 589.554
66.48000 587.991
66.52000 524.516
66.56000 460.003
66.60000 388.021
66.64000 365.881
66.68000 364.131
66.72000 352.884
66.76000 368.700
66.80000 362.356
66.84000 360.214
66.88000 393.611
66.92000 396.875
66.96000 386.145
67.00000 400.943
67.04000 391.552
67.08000 399.286
67.12000 416.033
67.16000 426.033
67.20000 444.422
67.24000 435.131
67.28000 446.832
67.32000 445.168
67.36000 480.446
67.40000 459.944
67.44000 493.324
67.48000 489.313
67.52000 506.595
67.56000 507.874
67.60000 520.478
67.64000 528.893
67.68000 549.825
67.72000 539.257
67.76000 572.203
67.80000 583.500
67.84000 578.206
67.88000 600.940
67.92000 600.867
67.96000 638.237
68.00000 656.073
68.04000 669.734
68.08000 675.237
68.12000 705.900
68.16000 700.503
68.20000 720.553
68.24000 751.496
68.28000 746.730
68.32000 782.181
68.36000 817.347
68.40000 844.987
68.44000 906.613
68.48000 953.358
68.52000 1043.700
68.56000 1157.242
68.60000 1295.253
68.64000 1503.214
68.68000 1891.500
68.72000 2213.471
68.76000 2503.396
68.80000 2958.260
68.84000 3632.479
68.88000 4944.748
68.92000 9492.516
68.96000 22731.416
69.00000 49871.664
69.04000 78615.867
69.08000 92551.961
69.12000 96092.547
69.16000 99670.375
69.20000 96932.930
69.24000 82375.844
69.28000 63053.793
69.32000 51844.316
69.36000 46385.172
69.40000 37169.746
69.44000 22847.451
69.48000 10494.560
69.52000 4491.352
69.56000 2731.154
69.60000 2083.938
69.64000 1727.958
69.68000 1490.404
69.72000 1345.411
69.76000 1210.770
69.80000 1140.621
69.84000 1045.153
69.88000 964.827
69.92000 916.256
69.96000 876.178
70.00000 845.708