File: XRD/22-09-2025 Dep 2/XY Data/BTO_Mapping_Theta2Theta_22-09-2025_001_13_12-470_15-637.xy
20.00000 560.776
20.04000 578.820
20.08000 566.890
20.12000 564.738
20.16000 555.013
20.20000 588.839
20.24000 566.705
20.28000 544.907
20.32000 560.117
20.36000 559.497
20.40000 580.045
20.44000 555.061
20.48000 575.350
20.52000 551.722
20.56000 540.544
20.60000 555.864
20.64000 555.852
20.68000 559.751
20.72000 575.159
20.76000 532.343
20.80000 550.687
20.84000 574.585
20.88000 556.049
20.92000 561.802
20.96000 578.713
21.00000 568.739
21.04000 556.234
21.08000 545.732
21.12000 564.971
21.16000 543.734
21.20000 562.695
21.24000 555.374
21.28000 544.558
21.32000 547.031
21.36000 547.358
21.40000 539.714
21.44000 564.652
21.48000 556.636
21.52000 541.894
21.56000 546.322
21.60000 554.685
21.64000 552.491
21.68000 581.822
21.72000 583.490
21.76000 587.079
21.80000 604.242
21.84000 619.867
21.88000 650.822
21.92000 671.932
21.96000 689.346
22.00000 741.227
22.04000 758.716
22.08000 769.255
22.12000 761.648
22.16000 748.218
22.20000 727.344
22.24000 712.903
22.28000 694.326
22.32000 633.452
22.36000 620.340
22.40000 600.406
22.44000 579.717
22.48000 572.103
22.52000 552.638
22.56000 544.158
22.60000 548.021
22.64000 546.989
22.68000 530.413
22.72000 547.590
22.76000 524.593
22.80000 524.826
22.84000 533.888
22.88000 517.743
22.92000 510.111
22.96000 524.260
23.00000 512.784
23.04000 517.467
23.08000 516.822
23.12000 522.844
23.16000 531.243
23.20000 505.369
23.24000 503.808
23.28000 510.226
23.32000 515.268
23.36000 505.217
23.40000 511.972
23.44000 501.698
23.48000 517.712
23.52000 505.989
23.56000 540.169
23.60000 496.783
23.64000 524.413
23.68000 506.996
23.72000 514.678
23.76000 512.276
23.80000 520.121
23.84000 535.833
23.88000 515.845
23.92000 516.417
23.96000 507.860
24.00000 522.189
24.04000 511.632
24.08000 512.437
24.12000 507.942
24.16000 513.960
24.20000 504.861
24.24000 489.465
24.28000 515.413
24.32000 503.635
24.36000 491.432
24.40000 531.993
24.44000 491.425
24.48000 489.071
24.52000 493.585
24.56000 491.220
24.60000 484.163
24.64000 504.113
24.68000 469.427
24.72000 494.373
24.76000 482.602
24.80000 483.568
24.84000 477.667
24.88000 482.079
24.92000 465.242
24.96000 487.062
25.00000 489.533
25.04000 470.726
25.08000 479.145
25.12000 488.708
25.16000 486.406
25.20000 476.527
25.24000 479.030
25.28000 459.914
25.32000 466.290
25.36000 476.755
25.40000 479.296
25.44000 437.249
25.48000 470.894
25.52000 477.871
25.56000 463.483
25.60000 464.338
25.64000 481.668
25.68000 480.480
25.72000 463.896
25.76000 466.856
25.80000 450.451
25.84000 480.083
25.88000 467.056
25.92000 459.956
25.96000 466.340
26.00000 458.417
26.04000 466.368
26.08000 483.154
26.12000 463.859
26.16000 464.880
26.20000 454.041
26.24000 478.140
26.28000 454.755
26.32000 454.486
26.36000 458.904
26.40000 441.750
26.44000 445.033
26.48000 455.453
26.52000 433.751
26.56000 457.442
26.60000 438.396
26.64000 442.166
26.68000 464.819
26.72000 453.621
26.76000 442.470
26.80000 464.685
26.84000 444.156
26.88000 455.360
26.92000 444.498
26.96000 422.249
27.00000 449.206
27.04000 451.525
27.08000 435.840
27.12000 450.224
27.16000 442.863
27.20000 440.272
27.24000 433.465
27.28000 421.262
27.32000 429.478
27.36000 441.069
27.40000 440.566
27.44000 439.529
27.48000 447.973
27.52000 426.998
27.56000 439.938
27.60000 420.755
27.64000 443.718
27.68000 438.367
27.72000 441.235
27.76000 425.169
27.80000 432.917
27.84000 419.106
27.88000 435.809
27.92000 426.780
27.96000 424.707
28.00000 428.103
28.04000 437.481
28.08000 431.221
28.12000 430.180
28.16000 429.548
28.20000 441.653
28.24000 434.619
28.28000 419.654
28.32000 426.391
28.36000 425.982
28.40000 427.364
28.44000 425.053
28.48000 428.272
28.52000 428.486
28.56000 419.680
28.60000 405.698
28.64000 429.214
28.68000 406.741
28.72000 431.395
28.76000 421.138
28.80000 429.295
28.84000 417.190
28.88000 427.682
28.92000 420.667
28.96000 422.652
29.00000 422.252
29.04000 419.727
29.08000 412.826
29.12000 412.667
29.16000 407.735
29.20000 431.987
29.24000 412.770
29.28000 411.041
29.32000 413.220
29.36000 425.403
29.40000 427.766
29.44000 400.763
29.48000 419.875
29.52000 410.635
29.56000 413.018
29.60000 395.635
29.64000 418.604
29.68000 411.025
29.72000 411.468
29.76000 422.401
29.80000 428.351
29.84000 423.709
29.88000 437.548
29.92000 422.384
29.96000 446.314
30.00000 431.677
30.04000 430.738
30.08000 441.545
30.12000 433.370
30.16000 437.169
30.20000 448.759
30.24000 444.728
30.28000 436.731
30.32000 430.203
30.36000 431.577
30.40000 433.285
30.44000 442.488
30.48000 429.791
30.52000 433.627
30.56000 437.226
30.60000 463.090
30.64000 423.678
30.68000 449.985
30.72000 463.195
30.76000 448.033
30.80000 471.625
30.84000 498.025
30.88000 491.768
30.92000 528.683
30.96000 554.489
31.00000 594.552
31.04000 649.803
31.08000 748.323
31.12000 897.610
31.16000 1114.443
31.20000 1461.094
31.24000 1873.679
31.28000 2385.696
31.32000 2793.333
31.36000 3086.139
31.40000 3272.233
31.44000 3170.588
31.48000 2874.616
31.52000 2499.748
31.56000 2029.415
31.60000 1662.190
31.64000 1270.705
31.68000 1022.194
31.72000 876.959
31.76000 723.022
31.80000 637.296
31.84000 578.271
31.88000 529.529
31.92000 493.533
31.96000 481.999
32.00000 451.984
32.04000 449.633
32.08000 434.947
32.12000 431.674
32.16000 419.298
32.20000 404.468
32.24000 399.528
32.28000 407.226
32.32000 423.766
32.36000 415.533
32.40000 404.158
32.44000 396.789
32.48000 403.427
32.52000 392.976
32.56000 383.446
32.60000 386.129
32.64000 393.585
32.68000 382.855
32.72000 375.901
32.76000 382.932
32.80000 384.124
32.84000 385.879
32.88000 387.785
32.92000 396.774
32.96000 398.690
33.00000 388.900
33.04000 374.084
33.08000 376.117
33.12000 363.392
33.16000 361.946
33.20000 368.681
33.24000 350.520
33.28000 335.137
33.32000 352.266
33.36000 357.532
33.40000 357.110
33.44000 352.715
33.48000 342.846
33.52000 336.676
33.56000 350.027
33.60000 347.896
33.64000 336.610
33.68000 349.332
33.72000 342.020
33.76000 351.054
33.80000 343.625
33.84000 345.975
33.88000 335.165
33.92000 338.302
33.96000 354.331
34.00000 343.439
34.04000 338.601
34.08000 341.415
34.12000 335.641
34.16000 341.581
34.20000 336.261
34.24000 342.740
34.28000 340.326
34.32000 333.526
34.36000 346.544
34.40000 339.881
34.44000 339.457
34.48000 330.038
34.52000 347.254
34.56000 325.973
34.60000 332.144
34.64000 314.721
34.68000 326.921
34.72000 335.697
34.76000 334.408
34.80000 336.809
34.84000 325.018
34.88000 325.188
34.92000 323.608
34.96000 305.475
35.00000 321.872
35.04000 325.830
35.08000 314.558
35.12000 320.163
35.16000 296.879
35.20000 323.144
35.24000 310.073
35.28000 314.223
35.32000 310.543
35.36000 311.633
35.40000 319.295
35.44000 306.997
35.48000 312.720
35.52000 303.581
35.56000 293.284
35.60000 310.321
35.64000 322.941
35.68000 333.128
35.72000 316.518
35.76000 312.322
35.80000 304.529
35.84000 316.312
35.88000 292.217
35.92000 306.494
35.96000 296.378
36.00000 281.998
36.04000 308.118
36.08000 298.835
36.12000 304.356
36.16000 296.517
36.20000 313.589
36.24000 313.002
36.28000 312.554
36.32000 307.493
36.36000 310.790
36.40000 312.044
36.44000 289.486
36.48000 298.593
36.52000 296.227
36.56000 292.394
36.60000 310.136
36.64000 292.111
36.68000 300.778
36.72000 288.453
36.76000 289.219
36.80000 310.541
36.84000 294.316
36.88000 286.198
36.92000 301.704
36.96000 296.891
37.00000 310.670
37.04000 307.020
37.08000 299.951
37.12000 305.406
37.16000 314.611
37.20000 297.563
37.24000 300.510
37.28000 300.445
37.32000 291.700
37.36000 286.440
37.40000 292.362
37.44000 309.154
37.48000 301.899
37.52000 287.058
37.56000 305.198
37.60000 301.011
37.64000 301.027
37.68000 278.047
37.72000 293.924
37.76000 305.142
37.80000 287.559
37.84000 304.206
37.88000 304.027
37.92000 301.990
37.96000 287.516
38.00000 299.170
38.04000 299.182
38.08000 311.009
38.12000 293.237
38.16000 312.271
38.20000 321.980
38.24000 303.406
38.28000 326.955
38.32000 331.068
38.36000 358.888
38.40000 364.222
38.44000 382.184
38.48000 443.220
38.52000 533.109
38.56000 599.764
38.60000 746.185
38.64000 839.841
38.68000 940.164
38.72000 1009.506
38.76000 1015.408
38.80000 987.670
38.84000 884.064
38.88000 780.462
38.92000 630.748
38.96000 530.466
39.00000 445.605
39.04000 407.220
39.08000 366.770
39.12000 341.375
39.16000 314.299
39.20000 306.897
39.24000 295.495
39.28000 282.806
39.32000 285.267
39.36000 282.743
39.40000 293.836
39.44000 280.240
39.48000 276.799
39.52000 274.390
39.56000 277.665
39.60000 263.495
39.64000 288.012
39.68000 266.713
39.72000 253.665
39.76000 268.012
39.80000 270.673
39.84000 271.550
39.88000 261.873
39.92000 270.912
39.96000 280.010
40.00000 270.344
40.04000 271.744
40.08000 274.365
40.12000 262.074
40.16000 261.976
40.20000 272.744
40.24000 267.038
40.28000 260.790
40.32000 260.000
40.36000 256.320
40.40000 250.725
40.44000 245.758
40.48000 275.052
40.52000 254.337
40.56000 261.675
40.60000 252.820
40.64000 247.901
40.68000 259.233
40.72000 258.505
40.76000 263.387
40.80000 250.426
40.84000 248.844
40.88000 261.326
40.92000 251.156
40.96000 248.300
41.00000 253.416
41.04000 250.438
41.08000 256.567
41.12000 244.479
41.16000 246.431
41.20000 246.188
41.24000 245.597
41.28000 246.993
41.32000 228.464
41.36000 251.195
41.40000 252.810
41.44000 254.241
41.48000 263.138
41.52000 242.069
41.56000 241.456
41.60000 237.354
41.64000 243.112
41.68000 235.084
41.72000 234.887
41.76000 245.824
41.80000 245.921
41.84000 240.183
41.88000 241.748
41.92000 237.693
41.96000 238.723
42.00000 240.011
42.04000 247.698
42.08000 240.137
42.12000 226.925
42.16000 249.417
42.20000 234.203
42.24000 243.802
42.28000 255.907
42.32000 244.628
42.36000 242.263
42.40000 242.397
42.44000 241.823
42.48000 231.743
42.52000 230.506
42.56000 235.692
42.60000 233.057
42.64000 224.415
42.68000 238.374
42.72000 243.467
42.76000 229.366
42.80000 236.888
42.84000 237.153
42.88000 218.958
42.92000 229.841
42.96000 225.231
43.00000 226.660
43.04000 233.604
43.08000 239.794
43.12000 232.132
43.16000 237.159
43.20000 227.575
43.24000 226.018
43.28000 225.245
43.32000 229.369
43.36000 233.489
43.40000 239.932
43.44000 213.653
43.48000 221.793
43.52000 233.532
43.56000 229.184
43.60000 215.519
43.64000 225.226
43.68000 227.803
43.72000 233.945
43.76000 225.025
43.80000 239.937
43.84000 227.620
43.88000 228.386
43.92000 221.363
43.96000 216.528
44.00000 228.043
44.04000 237.888
44.08000 224.154
44.12000 226.974
44.16000 220.368
44.20000 213.358
44.24000 230.479
44.28000 220.317
44.32000 243.940
44.36000 233.847
44.40000 219.968
44.44000 223.607
44.48000 229.231
44.52000 233.626
44.56000 245.761
44.60000 240.399
44.64000 242.313
44.68000 249.906
44.72000 259.970
44.76000 254.718
44.80000 279.179
44.84000 292.132
44.88000 311.534
44.92000 321.463
44.96000 344.787
45.00000 356.453
45.04000 364.429
45.08000 394.423
45.12000 395.059
45.16000 416.496
45.20000 381.082
45.24000 362.218
45.28000 369.176
45.32000 347.371
45.36000 336.095
45.40000 330.973
45.44000 308.435
45.48000 290.448
45.52000 297.725
45.56000 277.497
45.60000 265.649
45.64000 267.760
45.68000 243.489
45.72000 238.621
45.76000 253.940
45.80000 253.586
45.84000 250.963
45.88000 233.683
45.92000 222.618
45.96000 230.287
46.00000 222.972
46.04000 221.692
46.08000 217.344
46.12000 227.614
46.16000 204.651
46.20000 223.221
46.24000 216.192
46.28000 212.460
46.32000 213.350
46.36000 204.128
46.40000 203.241
46.44000 194.637
46.48000 200.335
46.52000 203.079
46.56000 203.802
46.60000 216.252
46.64000 206.067
46.68000 205.283
46.72000 187.761
46.76000 193.866
46.80000 199.967
46.84000 197.938
46.88000 201.363
46.92000 199.157
46.96000 209.287
47.00000 204.878
47.04000 205.101
47.08000 200.257
47.12000 199.317
47.16000 200.759
47.20000 184.919
47.24000 193.805
47.28000 185.058
47.32000 190.846
47.36000 190.470
47.40000 184.566
47.44000 192.905
47.48000 197.795
47.52000 179.440
47.56000 184.059
47.60000 188.954
47.64000 177.455
47.68000 187.225
47.72000 189.678
47.76000 180.650
47.80000 178.496
47.84000 180.137
47.88000 179.317
47.92000 174.225
47.96000 174.472
48.00000 185.603
48.04000 179.604
48.08000 174.160
48.12000 190.951
48.16000 193.940
48.20000 193.370
48.24000 186.847
48.28000 186.132
48.32000 187.351
48.36000 182.654
48.40000 194.822
48.44000 180.628
48.48000 183.876
48.52000 179.889
48.56000 177.928
48.60000 187.926
48.64000 183.552
48.68000 176.444
48.72000 180.109
48.76000 185.412
48.80000 186.722
48.84000 183.227
48.88000 182.945
48.92000 177.186
48.96000 178.029
49.00000 176.233
49.04000 178.427
49.08000 185.368
49.12000 177.933
49.16000 169.999
49.20000 178.813
49.24000 177.214
49.28000 183.335
49.32000 187.197
49.36000 182.346
49.40000 182.449
49.44000 181.213
49.48000 172.294
49.52000 172.341
49.56000 183.430
49.60000 183.432
49.64000 183.440
49.68000 182.225
49.72000 176.508
49.76000 174.058
49.80000 171.707
49.84000 181.411
49.88000 180.138
49.92000 182.653
49.96000 182.956
50.00000 183.818
50.04000 183.645
50.08000 170.429
50.12000 169.512
50.16000 169.245
50.20000 174.277
50.24000 179.385
50.28000 182.867
50.32000 185.661
50.36000 192.834
50.40000 195.451
50.44000 189.378
50.48000 197.223
50.52000 200.918
50.56000 215.841
50.60000 244.104
50.64000 247.253
50.68000 250.677
50.72000 259.950
50.76000 271.333
50.80000 268.729
50.84000 243.851
50.88000 234.022
50.92000 242.472
50.96000 224.028
51.00000 210.913
51.04000 224.271
51.08000 202.418
51.12000 202.468
51.16000 181.933
51.20000 180.952
51.24000 183.001
51.28000 184.425
51.32000 178.601
51.36000 183.192
51.40000 178.034
51.44000 179.892
51.48000 172.879
51.52000 177.522
51.56000 184.659
51.60000 165.609
51.64000 166.365
51.68000 173.912
51.72000 169.778
51.76000 151.366
51.80000 161.688
51.84000 166.644
51.88000 181.699
51.92000 166.837
51.96000 166.802
52.00000 169.536
52.04000 158.435
52.08000 169.042
52.12000 155.426
52.16000 153.925
52.20000 156.635
52.24000 158.248
52.28000 158.015
52.32000 156.042
52.36000 153.919
52.40000 155.716
52.44000 155.141
52.48000 162.648
52.52000 165.332
52.56000 161.308
52.60000 153.571
52.64000 151.076
52.68000 160.548
52.72000 158.272
52.76000 156.810
52.80000 154.659
52.84000 155.115
52.88000 159.272
52.92000 158.737
52.96000 157.388
53.00000 164.577
53.04000 168.593
53.08000 154.523
53.12000 153.867
53.16000 160.131
53.20000 150.663
53.24000 161.382
53.28000 154.171
53.32000 167.462
53.36000 172.062
53.40000 156.131
53.44000 157.699
53.48000 164.568
53.52000 159.185
53.56000 164.640
53.60000 158.322
53.64000 152.621
53.68000 158.581
53.72000 163.639
53.76000 157.417
53.80000 155.241
53.84000 157.884
53.88000 155.769
53.92000 154.585
53.96000 152.517
54.00000 157.932
54.04000 142.717
54.08000 151.874
54.12000 165.931
54.16000 157.189
54.20000 160.704
54.24000 163.877
54.28000 153.931
54.32000 156.434
54.36000 160.200
54.40000 159.488
54.44000 163.144
54.48000 152.508
54.52000 161.580
54.56000 162.531
54.60000 157.082
54.64000 155.867
54.68000 152.127
54.72000 149.618
54.76000 158.796
54.80000 149.380
54.84000 154.307
54.88000 154.999
54.92000 155.476
54.96000 157.847
55.00000 151.357
55.04000 160.817
55.08000 161.517
55.12000 157.911
55.16000 163.291
55.20000 160.677
55.24000 166.080
55.28000 177.457
55.32000 183.926
55.36000 164.436
55.40000 184.199
55.44000 173.161
55.48000 186.022
55.52000 199.481
55.56000 215.977
55.60000 225.484
55.64000 229.370
55.68000 249.706
55.72000 282.790
55.76000 329.912
55.80000 385.109
55.84000 410.411
55.88000 457.977
55.92000 503.484
55.96000 530.095
56.00000 549.441
56.04000 514.086
56.08000 492.683
56.12000 446.575
56.16000 424.345
56.20000 380.925
56.24000 332.070
56.28000 306.634
56.32000 265.816
56.36000 253.212
56.40000 230.963
56.44000 209.384
56.48000 202.455
56.52000 200.176
56.56000 190.543
56.60000 182.762
56.64000 183.877
56.68000 169.538
56.72000 169.892
56.76000 175.862
56.80000 155.920
56.84000 153.033
56.88000 160.569
56.92000 148.250
56.96000 146.711
57.00000 148.253
57.04000 153.622
57.08000 153.034
57.12000 144.235
57.16000 141.525
57.20000 149.274
57.24000 145.104
57.28000 145.569
57.32000 153.919
57.36000 147.387
57.40000 134.438
57.44000 135.275
57.48000 152.922
57.52000 152.137
57.56000 138.233
57.60000 142.138
57.64000 147.202
57.68000 148.476
57.72000 140.037
57.76000 148.101
57.80000 152.462
57.84000 138.130
57.88000 145.024
57.92000 152.917
57.96000 149.084
58.00000 141.890
58.04000 138.347
58.08000 143.263
58.12000 139.457
58.16000 138.805
58.20000 135.517
58.24000 142.116
58.28000 142.314
58.32000 150.422
58.36000 134.521
58.40000 125.149
58.44000 137.046
58.48000 129.032
58.52000 149.150
58.56000 144.475
58.60000 144.504
58.64000 130.806
58.68000 132.882
58.72000 129.866
58.76000 123.369
58.80000 140.424
58.84000 143.762
58.88000 129.804
58.92000 132.085
58.96000 134.060
59.00000 147.365
59.04000 140.353
59.08000 134.343
59.12000 130.806
59.16000 126.971
59.20000 140.696
59.24000 140.539
59.28000 146.574
59.32000 135.773
59.36000 140.962
59.40000 142.242
59.44000 131.679
59.48000 117.961
59.52000 131.956
59.56000 134.558
59.60000 135.542
59.64000 133.622
59.68000 133.515
59.72000 137.955
59.76000 133.973
59.80000 132.886
59.84000 133.390
59.88000 133.498
59.92000 134.719
59.96000 139.512
60.00000 136.017
60.04000 139.643
60.08000 144.405
60.12000 133.522
60.16000 141.835
60.20000 143.415
60.24000 139.287
60.28000 131.440
60.32000 123.978
60.36000 135.639
60.40000 136.086
60.44000 133.802
60.48000 138.428
60.52000 135.812
60.56000 139.428
60.60000 132.184
60.64000 127.648
60.68000 133.839
60.72000 131.613
60.76000 134.154
60.80000 129.264
60.84000 129.358
60.88000 134.829
60.92000 138.975
60.96000 130.564
61.00000 142.518
61.04000 141.945
61.08000 130.092
61.12000 132.571
61.16000 147.952
61.20000 141.287
61.24000 144.433
61.28000 131.133
61.32000 133.744
61.36000 151.238
61.40000 139.287
61.44000 148.835
61.48000 148.088
61.52000 168.402
61.56000 211.598
61.60000 254.163
61.64000 290.738
61.68000 299.249
61.72000 286.023
61.76000 282.909
61.80000 231.747
61.84000 180.222
61.88000 148.696
61.92000 157.162
61.96000 147.306
62.00000 145.211
62.04000 143.255
62.08000 144.118
62.12000 144.759
62.16000 140.605
62.20000 133.769
62.24000 136.869
62.28000 150.698
62.32000 139.234
62.36000 141.729
62.40000 140.253
62.44000 144.011
62.48000 143.535
62.52000 137.489
62.56000 144.611
62.60000 150.006
62.64000 150.849
62.68000 141.360
62.72000 145.063
62.76000 156.646
62.80000 155.656
62.84000 149.957
62.88000 148.215
62.92000 137.200
62.96000 147.038
63.00000 142.230
63.04000 140.160
63.08000 159.847
63.12000 149.991
63.16000 147.178
63.20000 142.964
63.24000 135.289
63.28000 143.024
63.32000 145.491
63.36000 142.644
63.40000 139.503
63.44000 144.184
63.48000 145.251
63.52000 155.409
63.56000 142.312
63.60000 143.476
63.64000 152.437
63.68000 165.978
63.72000 152.279
63.76000 161.231
63.80000 148.066
63.84000 150.706
63.88000 164.823
63.92000 156.746
63.96000 158.952
64.00000 156.718
64.04000 156.811
64.08000 152.154
64.12000 161.365
64.16000 167.818
64.20000 160.036
64.24000 158.881
64.28000 159.048
64.32000 158.572
64.36000 169.616
64.40000 183.179
64.44000 163.583
64.48000 168.895
64.52000 163.142
64.56000 170.163
64.60000 167.131
64.64000 169.816
64.68000 175.113
64.72000 185.365
64.76000 176.785
64.80000 183.831
64.84000 187.338
64.88000 190.108
64.92000 191.699
64.96000 191.602
65.00000 190.630
65.04000 197.872
65.08000 200.500
65.12000 213.491
65.16000 215.268
65.20000 214.821
65.24000 230.880
65.28000 243.487
65.32000 276.078
65.36000 293.380
65.40000 319.223
65.44000 325.328
65.48000 368.195
65.52000 405.414
65.56000 409.938
65.60000 442.091
65.64000 472.133
65.68000 545.657
65.72000 682.459
65.76000 912.535
65.80000 1103.528
65.84000 1192.225
65.88000 1203.823
65.92000 1184.583
65.96000 996.992
66.00000 691.947
66.04000 502.626
66.08000 400.165
66.12000 350.802
66.16000 311.123
66.20000 328.734
66.24000 339.860
66.28000 358.229
66.32000 413.742
66.36000 439.545
66.40000 480.975
66.44000 473.422
66.48000 480.711
66.52000 412.594
66.56000 377.147
66.60000 340.811
66.64000 329.273
66.68000 308.061
66.72000 323.517
66.76000 329.650
66.80000 333.993
66.84000 338.266
66.88000 326.107
66.92000 347.199
66.96000 352.298
67.00000 349.455
67.04000 361.496
67.08000 359.546
67.12000 378.318
67.16000 379.636
67.20000 386.950
67.24000 394.521
67.28000 404.474
67.32000 396.943
67.36000 408.714
67.40000 405.354
67.44000 420.723
67.48000 421.544
67.52000 425.583
67.56000 440.817
67.60000 451.286
67.64000 479.822
67.68000 463.518
67.72000 486.440
67.76000 493.846
67.80000 497.374
67.84000 484.095
67.88000 518.941
67.92000 513.142
67.96000 518.914
68.00000 531.855
68.04000 562.680
68.08000 573.595
68.12000 585.872
68.16000 594.470
68.20000 624.710
68.24000 616.446
68.28000 643.769
68.32000 687.815
68.36000 710.868
68.40000 717.536
68.44000 768.054
68.48000 784.236
68.52000 848.253
68.56000 925.517
68.60000 1063.048
68.64000 1236.167
68.68000 1489.952
68.72000 1682.498
68.76000 1922.280
68.80000 2233.974
68.84000 2596.607
68.88000 3393.708
68.92000 6327.534
68.96000 15202.866
69.00000 33995.781
69.04000 53491.742
69.08000 63133.340
69.12000 65510.262
69.16000 68338.727
69.20000 67590.297
69.24000 56357.820
69.28000 42712.105
69.32000 35388.723
69.36000 32026.117
69.40000 26263.498
69.44000 15768.257
69.48000 7254.062
69.52000 3394.610
69.56000 2141.394
69.60000 1594.873
69.64000 1365.627
69.68000 1191.522
69.72000 1047.131
69.76000 984.827
69.80000 905.310
69.84000 839.109
69.88000 785.899
69.92000 771.916
69.96000 736.401
70.00000 712.891