File: XRD/22-09-2025 Dep 2/XY Data/BTO_Mapping_Theta2Theta_22-09-2025_001_49_-18-705_-23-455.xy
20.00000 553.238
20.04000 548.870
20.08000 551.554
20.12000 559.457
20.16000 580.990
20.20000 561.182
20.24000 582.271
20.28000 543.414
20.32000 558.133
20.36000 570.981
20.40000 567.406
20.44000 567.703
20.48000 573.020
20.52000 586.323
20.56000 561.216
20.60000 570.171
20.64000 547.424
20.68000 552.612
20.72000 564.224
20.76000 571.141
20.80000 560.291
20.84000 561.845
20.88000 567.087
20.92000 554.329
20.96000 565.561
21.00000 564.854
21.04000 604.444
21.08000 579.338
21.12000 569.208
21.16000 558.000
21.20000 545.443
21.24000 530.131
21.28000 574.737
21.32000 581.937
21.36000 565.086
21.40000 571.597
21.44000 566.627
21.48000 554.322
21.52000 575.848
21.56000 603.736
21.60000 573.264
21.64000 594.078
21.68000 595.627
21.72000 608.830
21.76000 641.935
21.80000 642.437
21.84000 689.563
21.88000 731.532
21.92000 788.132
21.96000 815.099
22.00000 856.299
22.04000 866.578
22.08000 869.709
22.12000 847.651
22.16000 811.838
22.20000 759.432
22.24000 717.814
22.28000 670.198
22.32000 648.681
22.36000 621.433
22.40000 608.170
22.44000 604.946
22.48000 582.912
22.52000 571.781
22.56000 572.299
22.60000 557.896
22.64000 553.097
22.68000 548.655
22.72000 534.477
22.76000 532.645
22.80000 508.660
22.84000 542.397
22.88000 524.953
22.92000 506.558
22.96000 524.464
23.00000 519.712
23.04000 525.312
23.08000 517.982
23.12000 519.096
23.16000 519.106
23.20000 501.650
23.24000 514.642
23.28000 532.857
23.32000 517.638
23.36000 497.607
23.40000 519.823
23.44000 523.671
23.48000 509.065
23.52000 504.470
23.56000 511.936
23.60000 518.469
23.64000 526.376
23.68000 526.858
23.72000 507.607
23.76000 490.335
23.80000 503.862
23.84000 499.411
23.88000 509.897
23.92000 493.171
23.96000 511.904
24.00000 510.870
24.04000 495.995
24.08000 495.139
24.12000 499.298
24.16000 509.868
24.20000 505.389
24.24000 495.628
24.28000 478.166
24.32000 497.152
24.36000 479.732
24.40000 496.683
24.44000 477.776
24.48000 477.399
24.52000 487.965
24.56000 491.433
24.60000 499.158
24.64000 505.959
24.68000 467.614
24.72000 493.545
24.76000 473.434
24.80000 477.459
24.84000 482.829
24.88000 510.930
24.92000 500.420
24.96000 476.196
25.00000 496.296
25.04000 491.524
25.08000 487.955
25.12000 501.837
25.16000 508.156
25.20000 483.671
25.24000 485.161
25.28000 487.849
25.32000 462.329
25.36000 480.448
25.40000 478.444
25.44000 484.870
25.48000 485.505
25.52000 479.137
25.56000 467.559
25.60000 485.294
25.64000 481.046
25.68000 463.774
25.72000 466.962
25.76000 489.560
25.80000 454.867
25.84000 470.540
25.88000 471.794
25.92000 466.008
25.96000 473.039
26.00000 452.932
26.04000 460.088
26.08000 464.727
26.12000 451.008
26.16000 452.656
26.20000 459.405
26.24000 464.067
26.28000 472.737
26.32000 468.226
26.36000 449.613
26.40000 480.815
26.44000 456.753
26.48000 453.072
26.52000 456.958
26.56000 444.347
26.60000 441.589
26.64000 447.582
26.68000 459.097
26.72000 447.933
26.76000 450.248
26.80000 451.473
26.84000 448.792
26.88000 471.191
26.92000 447.320
26.96000 436.093
27.00000 463.379
27.04000 447.331
27.08000 442.543
27.12000 461.148
27.16000 444.555
27.20000 451.926
27.24000 445.664
27.28000 451.814
27.32000 456.506
27.36000 438.084
27.40000 447.250
27.44000 445.512
27.48000 449.789
27.52000 441.969
27.56000 450.486
27.60000 444.461
27.64000 435.268
27.68000 441.974
27.72000 440.390
27.76000 436.120
27.80000 430.770
27.84000 435.474
27.88000 421.595
27.92000 422.304
27.96000 427.159
28.00000 443.241
28.04000 434.473
28.08000 422.628
28.12000 436.558
28.16000 443.068
28.20000 436.289
28.24000 441.564
28.28000 437.706
28.32000 442.871
28.36000 424.479
28.40000 446.049
28.44000 435.247
28.48000 422.757
28.52000 432.001
28.56000 435.125
28.60000 443.918
28.64000 417.226
28.68000 434.447
28.72000 424.000
28.76000 419.305
28.80000 425.707
28.84000 425.891
28.88000 417.703
28.92000 413.543
28.96000 426.837
29.00000 421.199
29.04000 431.696
29.08000 419.945
29.12000 419.649
29.16000 409.866
29.20000 423.426
29.24000 417.771
29.28000 444.919
29.32000 435.736
29.36000 418.089
29.40000 410.515
29.44000 413.969
29.48000 414.353
29.52000 425.984
29.56000 411.560
29.60000 397.868
29.64000 418.409
29.68000 425.004
29.72000 416.327
29.76000 419.884
29.80000 433.015
29.84000 436.026
29.88000 429.148
29.92000 442.518
29.96000 447.151
30.00000 443.178
30.04000 437.046
30.08000 448.568
30.12000 446.429
30.16000 453.808
30.20000 445.034
30.24000 450.936
30.28000 446.862
30.32000 437.767
30.36000 433.793
30.40000 422.765
30.44000 442.498
30.48000 427.987
30.52000 437.713
30.56000 448.691
30.60000 444.696
30.64000 442.941
30.68000 467.767
30.72000 459.406
30.76000 449.318
30.80000 455.076
30.84000 473.784
30.88000 506.370
30.92000 502.670
30.96000 548.530
31.00000 559.933
31.04000 641.163
31.08000 736.251
31.12000 927.306
31.16000 1207.816
31.20000 1570.960
31.24000 2032.482
31.28000 2548.539
31.32000 3088.805
31.36000 3441.308
31.40000 3644.436
31.44000 3536.447
31.48000 3248.306
31.52000 2849.427
31.56000 2325.889
31.60000 1904.563
31.64000 1435.634
31.68000 1114.803
31.72000 931.399
31.76000 789.110
31.80000 691.452
31.84000 590.870
31.88000 534.067
31.92000 504.094
31.96000 474.289
32.00000 455.884
32.04000 438.709
32.08000 442.072
32.12000 409.467
32.16000 431.956
32.20000 410.345
32.24000 418.488
32.28000 409.623
32.32000 402.377
32.36000 410.609
32.40000 423.426
32.44000 426.596
32.48000 409.089
32.52000 408.981
32.56000 406.952
32.60000 391.886
32.64000 402.849
32.68000 406.853
32.72000 396.532
32.76000 395.433
32.80000 404.990
32.84000 421.648
32.88000 455.201
32.92000 468.710
32.96000 492.008
33.00000 485.785
33.04000 443.480
33.08000 418.912
33.12000 393.574
33.16000 375.696
33.20000 365.898
33.24000 376.489
33.28000 353.311
33.32000 362.691
33.36000 363.887
33.40000 363.889
33.44000 351.380
33.48000 371.420
33.52000 344.689
33.56000 351.219
33.60000 350.024
33.64000 357.153
33.68000 340.034
33.72000 351.766
33.76000 348.786
33.80000 341.124
33.84000 339.294
33.88000 351.177
33.92000 336.481
33.96000 346.639
34.00000 347.379
34.04000 357.415
34.08000 346.506
34.12000 339.928
34.16000 342.968
34.20000 339.240
34.24000 343.369
34.28000 342.556
34.32000 324.514
34.36000 333.309
34.40000 340.922
34.44000 335.119
34.48000 334.676
34.52000 326.158
34.56000 334.858
34.60000 306.896
34.64000 339.836
34.68000 329.036
34.72000 325.076
34.76000 333.857
34.80000 338.012
34.84000 332.593
34.88000 335.626
34.92000 325.660
34.96000 346.882
35.00000 321.139
35.04000 340.508
35.08000 323.746
35.12000 336.732
35.16000 329.156
35.20000 319.744
35.24000 294.515
35.28000 312.540
35.32000 319.793
35.36000 321.097
35.40000 315.906
35.44000 331.070
35.48000 315.879
35.52000 318.032
35.56000 318.085
35.60000 323.962
35.64000 316.496
35.68000 317.655
35.72000 315.078
35.76000 311.384
35.80000 303.233
35.84000 309.596
35.88000 309.635
35.92000 295.458
35.96000 303.802
36.00000 313.478
36.04000 313.298
36.08000 306.121
36.12000 312.744
36.16000 310.557
36.20000 319.113
36.24000 310.354
36.28000 315.315
36.32000 298.143
36.36000 303.360
36.40000 309.727
36.44000 309.001
36.48000 299.258
36.52000 299.572
36.56000 311.219
36.60000 301.688
36.64000 305.280
36.68000 300.302
36.72000 311.713
36.76000 298.462
36.80000 308.694
36.84000 306.270
36.88000 308.301
36.92000 330.453
36.96000 307.717
37.00000 314.974
37.04000 316.914
37.08000 304.928
37.12000 312.281
37.16000 308.996
37.20000 302.971
37.24000 305.432
37.28000 304.767
37.32000 298.290
37.36000 314.981
37.40000 302.718
37.44000 300.751
37.48000 289.238
37.52000 312.733
37.56000 302.684
37.60000 301.581
37.64000 284.728
37.68000 289.234
37.72000 298.402
37.76000 293.137
37.80000 302.156
37.84000 290.537
37.88000 295.891
37.92000 297.088
37.96000 302.551
38.00000 307.574
38.04000 307.428
38.08000 308.743
38.12000 309.424
38.16000 318.304
38.20000 309.801
38.24000 329.070
38.28000 349.707
38.32000 367.780
38.36000 375.804
38.40000 404.521
38.44000 427.428
38.48000 503.189
38.52000 554.062
38.56000 610.383
38.60000 694.773
38.64000 746.189
38.68000 799.220
38.72000 824.140
38.76000 797.187
38.80000 755.388
38.84000 673.902
38.88000 605.963
38.92000 521.764
38.96000 466.605
39.00000 422.587
39.04000 390.371
39.08000 344.265
39.12000 322.196
39.16000 317.527
39.20000 313.800
39.24000 321.987
39.28000 298.649
39.32000 306.834
39.36000 297.568
39.40000 283.813
39.44000 288.652
39.48000 303.680
39.52000 275.929
39.56000 282.844
39.60000 275.794
39.64000 264.009
39.68000 270.630
39.72000 287.423
39.76000 279.416
39.80000 281.495
39.84000 264.881
39.88000 273.734
39.92000 270.705
39.96000 271.598
40.00000 273.387
40.04000 273.080
40.08000 281.456
40.12000 279.937
40.16000 273.150
40.20000 276.500
40.24000 278.046
40.28000 264.249
40.32000 270.892
40.36000 259.181
40.40000 256.593
40.44000 252.433
40.48000 261.688
40.52000 268.503
40.56000 262.956
40.60000 265.773
40.64000 260.227
40.68000 259.917
40.72000 260.284
40.76000 249.785
40.80000 263.988
40.84000 256.485
40.88000 252.342
40.92000 256.883
40.96000 263.130
41.00000 249.861
41.04000 265.796
41.08000 242.539
41.12000 245.496
41.16000 263.501
41.20000 255.972
41.24000 253.159
41.28000 259.193
41.32000 247.752
41.36000 237.742
41.40000 247.809
41.44000 257.999
41.48000 251.545
41.52000 243.831
41.56000 238.778
41.60000 253.761
41.64000 246.825
41.68000 233.977
41.72000 241.428
41.76000 230.521
41.80000 249.699
41.84000 258.075
41.88000 248.734
41.92000 254.001
41.96000 251.928
42.00000 250.994
42.04000 238.922
42.08000 235.021
42.12000 236.619
42.16000 244.205
42.20000 247.830
42.24000 241.348
42.28000 244.560
42.32000 228.427
42.36000 235.891
42.40000 240.178
42.44000 238.653
42.48000 228.292
42.52000 240.350
42.56000 228.474
42.60000 229.570
42.64000 240.670
42.68000 239.754
42.72000 237.001
42.76000 240.347
42.80000 234.079
42.84000 239.705
42.88000 231.989
42.92000 240.297
42.96000 225.862
43.00000 241.021
43.04000 236.456
43.08000 229.676
43.12000 235.708
43.16000 229.961
43.20000 232.195
43.24000 232.736
43.28000 240.421
43.32000 232.760
43.36000 231.815
43.40000 231.150
43.44000 233.082
43.48000 223.140
43.52000 234.281
43.56000 232.827
43.60000 240.617
43.64000 234.180
43.68000 221.061
43.72000 233.498
43.76000 233.502
43.80000 223.027
43.84000 234.924
43.88000 228.019
43.92000 229.668
43.96000 223.095
44.00000 227.783
44.04000 240.367
44.08000 241.061
44.12000 229.332
44.16000 239.849
44.20000 235.611
44.24000 227.165
44.28000 242.216
44.32000 232.515
44.36000 235.847
44.40000 241.850
44.44000 241.233
44.48000 253.093
44.52000 256.512
44.56000 260.235
44.60000 273.522
44.64000 290.228
44.68000 294.897
44.72000 314.501
44.76000 332.753
44.80000 365.944
44.84000 406.798
44.88000 431.762
44.92000 447.708
44.96000 459.646
45.00000 480.085
45.04000 508.648
45.08000 482.403
45.12000 471.126
45.16000 451.132
45.20000 430.159
45.24000 392.087
45.28000 380.858
45.32000 368.227
45.36000 330.931
45.40000 330.202
45.44000 315.849
45.48000 281.764
45.52000 279.614
45.56000 270.545
45.60000 255.372
45.64000 269.817
45.68000 256.295
45.72000 252.186
45.76000 238.495
45.80000 225.041
45.84000 228.471
45.88000 221.444
45.92000 232.605
45.96000 240.406
46.00000 225.500
46.04000 220.965
46.08000 220.904
46.12000 213.317
46.16000 215.689
46.20000 215.627
46.24000 205.152
46.28000 213.732
46.32000 215.483
46.36000 206.870
46.40000 200.719
46.44000 208.998
46.48000 202.445
46.52000 203.013
46.56000 210.664
46.60000 206.434
46.64000 205.610
46.68000 207.482
46.72000 197.514
46.76000 197.951
46.80000 200.617
46.84000 213.125
46.88000 187.874
46.92000 201.271
46.96000 200.871
47.00000 191.604
47.04000 210.330
47.08000 191.419
47.12000 195.777
47.16000 201.549
47.20000 195.068
47.24000 184.516
47.28000 195.137
47.32000 197.450
47.36000 194.298
47.40000 202.110
47.44000 196.132
47.48000 185.589
47.52000 184.538
47.56000 186.045
47.60000 196.166
47.64000 189.220
47.68000 184.982
47.72000 190.308
47.76000 206.159
47.80000 196.841
47.84000 190.779
47.88000 193.079
47.92000 183.900
47.96000 192.672
48.00000 169.437
48.04000 184.199
48.08000 191.686
48.12000 184.851
48.16000 190.265
48.20000 192.788
48.24000 184.234
48.28000 192.263
48.32000 186.472
48.36000 184.351
48.40000 171.549
48.44000 190.829
48.48000 187.494
48.52000 174.834
48.56000 189.949
48.60000 185.167
48.64000 194.205
48.68000 169.206
48.72000 189.181
48.76000 178.556
48.80000 168.931
48.84000 186.808
48.88000 183.983
48.92000 201.782
48.96000 184.628
49.00000 183.047
49.04000 179.142
49.08000 187.381
49.12000 174.967
49.16000 187.346
49.20000 180.810
49.24000 173.624
49.28000 185.497
49.32000 180.390
49.36000 191.268
49.40000 187.908
49.44000 175.048
49.48000 182.721
49.52000 176.154
49.56000 189.934
49.60000 184.236
49.64000 177.609
49.68000 174.866
49.72000 172.499
49.76000 178.539
49.80000 175.289
49.84000 175.790
49.88000 190.023
49.92000 182.863
49.96000 169.350
50.00000 183.876
50.04000 183.553
50.08000 177.692
50.12000 187.755
50.16000 178.211
50.20000 186.815
50.24000 185.393
50.28000 190.159
50.32000 198.962
50.36000 203.471
50.40000 203.848
50.44000 216.453
50.48000 221.452
50.52000 243.047
50.56000 270.244
50.60000 266.266
50.64000 279.585
50.68000 279.350
50.72000 276.877
50.76000 286.222
50.80000 290.058
50.84000 272.921
50.88000 260.886
50.92000 266.906
50.96000 225.485
51.00000 221.517
51.04000 208.027
51.08000 215.385
51.12000 193.272
51.16000 190.148
51.20000 188.495
51.24000 196.509
51.28000 188.395
51.32000 177.988
51.36000 174.703
51.40000 171.115
51.44000 180.494
51.48000 177.512
51.52000 180.510
51.56000 174.866
51.60000 181.933
51.64000 157.074
51.68000 182.849
51.72000 165.129
51.76000 162.307
51.80000 171.870
51.84000 164.001
51.88000 167.758
51.92000 169.954
51.96000 157.990
52.00000 160.005
52.04000 160.445
52.08000 172.867
52.12000 164.314
52.16000 156.826
52.20000 169.182
52.24000 164.851
52.28000 158.178
52.32000 158.507
52.36000 162.301
52.40000 167.139
52.44000 167.732
52.48000 152.568
52.52000 164.901
52.56000 155.189
52.60000 162.232
52.64000 166.215
52.68000 166.156
52.72000 166.196
52.76000 162.228
52.80000 161.797
52.84000 159.831
52.88000 173.386
52.92000 159.272
52.96000 154.043
53.00000 155.479
53.04000 158.423
53.08000 156.913
53.12000 157.490
53.16000 162.588
53.20000 164.928
53.24000 155.884
53.28000 154.598
53.32000 174.861
53.36000 163.842
53.40000 166.277
53.44000 172.826
53.48000 157.354
53.52000 165.137
53.56000 155.740
53.60000 177.056
53.64000 172.218
53.68000 160.146
53.72000 165.193
53.76000 156.607
53.80000 166.847
53.84000 160.235
53.88000 165.303
53.92000 162.281
53.96000 165.245
54.00000 166.999
54.04000 159.094
54.08000 156.539
54.12000 159.270
54.16000 158.825
54.20000 166.898
54.24000 158.551
54.28000 157.047
54.32000 160.550
54.36000 159.133
54.40000 159.286
54.44000 154.679
54.48000 153.800
54.52000 165.925
54.56000 176.348
54.60000 165.960
54.64000 162.333
54.68000 154.478
54.72000 159.122
54.76000 156.903
54.80000 156.898
54.84000 166.293
54.88000 154.833
54.92000 159.318
54.96000 157.707
55.00000 157.197
55.04000 165.025
55.08000 164.695
55.12000 165.367
55.16000 167.570
55.20000 169.088
55.24000 173.556
55.28000 176.541
55.32000 170.832
55.36000 186.834
55.40000 210.921
55.44000 211.794
55.48000 221.808
55.52000 241.430
55.56000 249.713
55.60000 269.887
55.64000 310.233
55.68000 331.616
55.72000 381.379
55.76000 432.118
55.80000 459.853
55.84000 535.466
55.88000 552.042
55.92000 564.397
55.96000 587.197
56.00000 560.989
56.04000 523.719
56.08000 496.614
56.12000 448.798
56.16000 398.560
56.20000 379.393
56.24000 329.562
56.28000 292.685
56.32000 283.220
56.36000 251.018
56.40000 233.339
56.44000 228.330
56.48000 209.735
56.52000 200.737
56.56000 184.377
56.60000 175.204
56.64000 172.019
56.68000 174.704
56.72000 166.680
56.76000 176.300
56.80000 163.143
56.84000 160.192
56.88000 156.214
56.92000 153.302
56.96000 165.852
57.00000 155.951
57.04000 152.974
57.08000 154.965
57.12000 151.608
57.16000 146.792
57.20000 144.814
57.24000 148.863
57.28000 149.482
57.32000 144.443
57.36000 134.111
57.40000 141.091
57.44000 146.639
57.48000 144.014
57.52000 152.668
57.56000 156.132
57.60000 152.888
57.64000 144.125
57.68000 139.950
57.72000 146.784
57.76000 142.981
57.80000 152.941
57.84000 142.827
57.88000 130.441
57.92000 141.143
57.96000 143.974
58.00000 137.939
58.04000 154.947
58.08000 150.113
58.12000 145.304
58.16000 144.447
58.20000 140.035
58.24000 147.703
58.28000 137.290
58.32000 138.045
58.36000 134.686
58.40000 143.951
58.44000 137.114
58.48000 145.163
58.52000 131.290
58.56000 135.556
58.60000 142.480
58.64000 143.397
58.68000 143.622
58.72000 138.893
58.76000 136.943
58.80000 137.191
58.84000 130.846
58.88000 131.515
58.92000 130.932
58.96000 134.152
59.00000 129.205
59.04000 133.787
59.08000 140.476
59.12000 139.437
59.16000 143.815
59.20000 127.586
59.24000 135.644
59.28000 142.108
59.32000 140.601
59.36000 127.940
59.40000 133.424
59.44000 135.987
59.48000 123.475
59.52000 133.391
59.56000 138.664
59.60000 134.967
59.64000 138.524
59.68000 132.294
59.72000 136.219
59.76000 132.710
59.80000 142.654
59.84000 126.984
59.88000 144.527
59.92000 143.231
59.96000 140.994
60.00000 133.918
60.04000 130.760
60.08000 143.164
60.12000 127.977
60.16000 133.288
60.20000 127.851
60.24000 136.630
60.28000 136.376
60.32000 130.655
60.36000 138.829
60.40000 128.979
60.44000 127.621
60.48000 127.155
60.52000 128.920
60.56000 130.879
60.60000 131.546
60.64000 138.750
60.68000 135.263
60.72000 133.845
60.76000 139.364
60.80000 132.355
60.84000 136.943
60.88000 141.614
60.92000 134.195
60.96000 140.054
61.00000 137.293
61.04000 147.123
61.08000 144.455
61.12000 141.284
61.16000 148.148
61.20000 148.584
61.24000 144.299
61.28000 144.549
61.32000 143.498
61.36000 132.435
61.40000 140.160
61.44000 148.310
61.48000 152.042
61.52000 180.410
61.56000 228.825
61.60000 304.767
61.64000 341.134
61.68000 360.433
61.72000 376.334
61.76000 370.875
61.80000 299.588
61.84000 229.415
61.88000 184.374
61.92000 156.413
61.96000 160.936
62.00000 148.325
62.04000 154.103
62.08000 145.479
62.12000 147.068
62.16000 150.867
62.20000 136.775
62.24000 143.365
62.28000 138.343
62.32000 137.606
62.36000 146.550
62.40000 142.411
62.44000 145.799
62.48000 151.618
62.52000 156.197
62.56000 141.397
62.60000 143.640
62.64000 146.190
62.68000 154.268
62.72000 138.525
62.76000 146.912
62.80000 144.434
62.84000 146.463
62.88000 149.713
62.92000 134.902
62.96000 142.619
63.00000 148.156
63.04000 138.293
63.08000 151.722
63.12000 156.131
63.16000 146.427
63.20000 147.439
63.24000 150.138
63.28000 156.204
63.32000 156.797
63.36000 152.181
63.40000 150.591
63.44000 157.990
63.48000 146.185
63.52000 141.744
63.56000 155.806
63.60000 154.887
63.64000 149.179
63.68000 151.611
63.72000 153.147
63.76000 151.471
63.80000 159.137
63.84000 151.084
63.88000 157.451
63.92000 155.556
63.96000 184.537
64.00000 161.964
64.04000 164.783
64.08000 156.611
64.12000 167.793
64.16000 165.004
64.20000 161.014
64.24000 169.787
64.28000 161.295
64.32000 170.099
64.36000 165.207
64.40000 182.108
64.44000 173.753
64.48000 156.663
64.52000 176.698
64.56000 177.450
64.60000 177.223
64.64000 176.828
64.68000 169.307
64.72000 180.686
64.76000 185.863
64.80000 186.386
64.84000 185.038
64.88000 185.776
64.92000 201.526
64.96000 194.129
65.00000 205.255
65.04000 221.878
65.08000 226.768
65.12000 220.114
65.16000 224.835
65.20000 242.218
65.24000 254.319
65.28000 281.798
65.32000 301.965
65.36000 314.480
65.40000 350.011
65.44000 385.302
65.48000 394.439
65.52000 412.776
65.56000 457.954
65.60000 477.836
65.64000 545.663
65.68000 612.790
65.72000 824.577
65.76000 1114.940
65.80000 1407.815
65.84000 1607.565
65.88000 1674.085
65.92000 1651.666
65.96000 1494.135
66.00000 1081.621
66.04000 729.022
66.08000 504.898
66.12000 433.481
66.16000 379.417
66.20000 376.834
66.24000 369.624
66.28000 421.788
66.32000 493.217
66.36000 553.200
66.40000 582.322
66.44000 594.597
66.48000 602.189
66.52000 545.369
66.56000 473.144
66.60000 425.603
66.64000 392.697
66.68000 378.650
66.72000 380.644
66.76000 376.494
66.80000 363.430
66.84000 371.806
66.88000 379.263
66.92000 386.913
66.96000 399.359
67.00000 402.046
67.04000 417.713
67.08000 417.215
67.12000 406.573
67.16000 423.337
67.20000 437.893
67.24000 426.546
67.28000 444.741
67.32000 461.585
67.36000 472.467
67.40000 490.435
67.44000 474.049
67.48000 491.819
67.52000 502.071
67.56000 517.593
67.60000 509.064
67.64000 541.860
67.68000 532.442
67.72000 576.378
67.76000 569.628
67.80000 584.722
67.84000 618.734
67.88000 587.739
67.92000 607.881
67.96000 598.227
68.00000 648.967
68.04000 645.798
68.08000 660.431
68.12000 681.317
68.16000 704.305
68.20000 719.491
68.24000 757.310
68.28000 750.649
68.32000 790.602
68.36000 812.593
68.40000 855.716
68.44000 912.306
68.48000 932.225
68.52000 998.859
68.56000 1063.447
68.60000 1243.788
68.64000 1470.116
68.68000 1774.546
68.72000 2131.184
68.76000 2488.263
68.80000 2945.041
68.84000 3573.433
68.88000 4803.178
68.92000 8041.872
68.96000 17877.762
69.00000 41215.895
69.04000 71277.766
69.08000 91045.281
69.12000 96256.648
69.16000 99976.398
69.20000 101127.727
69.24000 88747.797
69.28000 69745.688
69.32000 55443.410
69.36000 48706.488
69.40000 41560.625
69.44000 27669.736
69.48000 14098.496
69.52000 6175.201
69.56000 3337.537
69.60000 2312.332
69.64000 1846.662
69.68000 1583.973
69.72000 1434.852
69.76000 1265.703
69.80000 1159.709
69.84000 1098.687
69.88000 976.215
69.92000 938.943
69.96000 909.319
70.00000 874.694