File: XRD/22-09-2025 Dep 2/XY Data/BTO_Mapping_Theta2Theta_22-09-2025_001_52_-2-225_-9-749.xy
20.00000 585.717
20.04000 590.439
20.08000 571.803
20.12000 561.866
20.16000 582.473
20.20000 572.696
20.24000 566.750
20.28000 561.130
20.32000 562.564
20.36000 573.354
20.40000 562.809
20.44000 578.038
20.48000 578.534
20.52000 556.982
20.56000 555.795
20.60000 569.745
20.64000 566.727
20.68000 562.649
20.72000 574.052
20.76000 555.705
20.80000 556.912
20.84000 556.797
20.88000 564.584
20.92000 568.989
20.96000 549.497
21.00000 546.030
21.04000 543.729
21.08000 548.448
21.12000 565.622
21.16000 570.437
21.20000 555.314
21.24000 568.012
21.28000 554.530
21.32000 567.176
21.36000 579.487
21.40000 552.020
21.44000 576.828
21.48000 566.090
21.52000 569.245
21.56000 573.628
21.60000 562.469
21.64000 582.278
21.68000 570.454
21.72000 596.157
21.76000 607.716
21.80000 639.147
21.84000 653.688
21.88000 685.967
21.92000 750.513
21.96000 783.893
22.00000 805.151
22.04000 836.141
22.08000 878.902
22.12000 846.641
22.16000 821.641
22.20000 773.713
22.24000 718.337
22.28000 677.627
22.32000 636.027
22.36000 627.781
22.40000 615.064
22.44000 587.485
22.48000 570.638
22.52000 577.311
22.56000 552.277
22.60000 536.912
22.64000 540.891
22.68000 549.060
22.72000 542.785
22.76000 542.351
22.80000 545.506
22.84000 541.299
22.88000 507.943
22.92000 514.579
22.96000 529.819
23.00000 519.969
23.04000 514.101
23.08000 521.751
23.12000 526.587
23.16000 515.127
23.20000 516.048
23.24000 523.986
23.28000 524.038
23.32000 541.146
23.36000 517.105
23.40000 527.045
23.44000 492.926
23.48000 494.336
23.52000 531.434
23.56000 504.040
23.60000 517.536
23.64000 529.284
23.68000 498.707
23.72000 504.122
23.76000 513.840
23.80000 503.783
23.84000 512.743
23.88000 513.318
23.92000 504.255
23.96000 505.047
24.00000 509.000
24.04000 503.420
24.08000 508.146
24.12000 489.740
24.16000 473.769
24.20000 499.148
24.24000 481.791
24.28000 503.200
24.32000 503.730
24.36000 496.252
24.40000 505.571
24.44000 497.445
24.48000 489.752
24.52000 490.344
24.56000 496.738
24.60000 487.856
24.64000 480.774
24.68000 485.201
24.72000 475.696
24.76000 486.251
24.80000 490.774
24.84000 501.432
24.88000 482.643
24.92000 489.669
24.96000 473.046
25.00000 495.134
25.04000 483.391
25.08000 485.531
25.12000 463.937
25.16000 474.410
25.20000 480.688
25.24000 483.659
25.28000 481.651
25.32000 487.049
25.36000 478.984
25.40000 481.661
25.44000 486.562
25.48000 470.843
25.52000 487.970
25.56000 467.706
25.60000 466.880
25.64000 462.632
25.68000 456.836
25.72000 476.382
25.76000 466.278
25.80000 467.077
25.84000 462.569
25.88000 479.113
25.92000 480.078
25.96000 449.654
26.00000 451.602
26.04000 457.337
26.08000 470.359
26.12000 469.110
26.16000 451.568
26.20000 462.940
26.24000 458.141
26.28000 439.714
26.32000 472.533
26.36000 451.931
26.40000 455.869
26.44000 441.409
26.48000 457.376
26.52000 469.558
26.56000 467.086
26.60000 459.774
26.64000 458.974
26.68000 449.330
26.72000 438.531
26.76000 453.079
26.80000 433.066
26.84000 448.586
26.88000 455.599
26.92000 447.314
26.96000 448.524
27.00000 436.700
27.04000 459.658
27.08000 461.733
27.12000 447.660
27.16000 460.601
27.20000 470.253
27.24000 441.716
27.28000 434.102
27.32000 459.013
27.36000 448.514
27.40000 452.623
27.44000 436.135
27.48000 442.798
27.52000 423.405
27.56000 438.868
27.60000 458.024
27.64000 427.824
27.68000 453.026
27.72000 430.902
27.76000 446.414
27.80000 450.081
27.84000 438.532
27.88000 440.999
27.92000 450.561
27.96000 415.723
28.00000 449.970
28.04000 422.379
28.08000 443.707
28.12000 461.637
28.16000 456.092
28.20000 441.894
28.24000 431.746
28.28000 441.833
28.32000 426.172
28.36000 448.768
28.40000 449.217
28.44000 448.416
28.48000 447.973
28.52000 436.957
28.56000 426.548
28.60000 424.781
28.64000 411.542
28.68000 430.233
28.72000 432.776
28.76000 421.356
28.80000 420.426
28.84000 418.755
28.88000 420.552
28.92000 417.548
28.96000 424.870
29.00000 435.836
29.04000 428.133
29.08000 398.761
29.12000 417.770
29.16000 414.460
29.20000 413.987
29.24000 424.209
29.28000 444.835
29.32000 423.535
29.36000 416.345
29.40000 426.036
29.44000 401.668
29.48000 427.072
29.52000 419.311
29.56000 422.797
29.60000 426.958
29.64000 413.994
29.68000 416.349
29.72000 425.835
29.76000 426.190
29.80000 436.660
29.84000 433.003
29.88000 440.219
29.92000 443.421
29.96000 457.613
30.00000 440.218
30.04000 456.612
30.08000 443.652
30.12000 451.595
30.16000 438.621
30.20000 454.488
30.24000 443.755
30.28000 471.454
30.32000 449.230
30.36000 421.557
30.40000 439.578
30.44000 431.313
30.48000 452.847
30.52000 456.941
30.56000 443.668
30.60000 458.805
30.64000 457.784
30.68000 489.546
30.72000 476.798
30.76000 495.598
30.80000 484.333
30.84000 487.018
30.88000 510.615
30.92000 535.044
30.96000 600.540
31.00000 623.427
31.04000 713.889
31.08000 826.810
31.12000 1004.256
31.16000 1267.073
31.20000 1627.609
31.24000 2079.376
31.28000 2572.736
31.32000 3004.620
31.36000 3306.561
31.40000 3490.981
31.44000 3369.932
31.48000 3097.706
31.52000 2601.661
31.56000 2152.425
31.60000 1740.742
31.64000 1376.500
31.68000 1084.829
31.72000 866.829
31.76000 794.320
31.80000 685.985
31.84000 588.570
31.88000 547.706
31.92000 512.071
31.96000 483.711
32.00000 459.686
32.04000 455.550
32.08000 434.390
32.12000 422.185
32.16000 431.644
32.20000 442.036
32.24000 435.528
32.28000 413.654
32.32000 398.768
32.36000 387.600
32.40000 396.373
32.44000 412.764
32.48000 402.315
32.52000 414.366
32.56000 388.854
32.60000 401.594
32.64000 396.210
32.68000 403.051
32.72000 383.391
32.76000 405.612
32.80000 406.808
32.84000 428.061
32.88000 458.933
32.92000 475.394
32.96000 437.832
33.00000 450.625
33.04000 414.184
33.08000 401.262
33.12000 392.170
33.16000 367.673
33.20000 365.424
33.24000 365.011
33.28000 368.844
33.32000 365.313
33.36000 370.743
33.40000 367.042
33.44000 358.481
33.48000 338.072
33.52000 351.965
33.56000 337.354
33.60000 351.962
33.64000 344.292
33.68000 355.946
33.72000 340.497
33.76000 365.605
33.80000 334.379
33.84000 337.117
33.88000 334.361
33.92000 336.913
33.96000 354.315
34.00000 333.706
34.04000 337.350
34.08000 324.662
34.12000 334.981
34.16000 341.513
34.20000 346.967
34.24000 343.846
34.28000 337.410
34.32000 331.915
34.36000 332.031
34.40000 321.617
34.44000 336.585
34.48000 339.541
34.52000 317.770
34.56000 331.196
34.60000 323.846
34.64000 333.121
34.68000 326.927
34.72000 328.809
34.76000 306.255
34.80000 303.355
34.84000 303.717
34.88000 336.335
34.92000 329.258
34.96000 318.938
35.00000 309.997
35.04000 331.037
35.08000 309.733
35.12000 322.845
35.16000 317.808
35.20000 322.805
35.24000 306.134
35.28000 327.207
35.32000 317.249
35.36000 327.111
35.40000 323.830
35.44000 313.431
35.48000 314.631
35.52000 312.684
35.56000 310.660
35.60000 315.820
35.64000 313.393
35.68000 311.953
35.72000 304.338
35.76000 316.230
35.80000 312.680
35.84000 316.860
35.88000 305.399
35.92000 315.818
35.96000 302.030
36.00000 305.958
36.04000 305.042
36.08000 304.792
36.12000 308.119
36.16000 310.983
36.20000 306.722
36.24000 306.218
36.28000 303.278
36.32000 313.959
36.36000 317.137
36.40000 300.787
36.44000 311.656
36.48000 297.491
36.52000 297.798
36.56000 299.384
36.60000 305.219
36.64000 298.675
36.68000 297.981
36.72000 322.480
36.76000 297.983
36.80000 290.622
36.84000 301.869
36.88000 302.165
36.92000 300.050
36.96000 308.367
37.00000 327.313
37.04000 324.952
37.08000 315.695
37.12000 307.023
37.16000 309.896
37.20000 307.431
37.24000 317.534
37.28000 304.291
37.32000 298.128
37.36000 308.988
37.40000 310.861
37.44000 305.968
37.48000 296.338
37.52000 301.130
37.56000 286.780
37.60000 294.400
37.64000 290.405
37.68000 300.255
37.72000 295.047
37.76000 322.421
37.80000 285.503
37.84000 305.026
37.88000 290.344
37.92000 295.819
37.96000 295.046
38.00000 308.847
38.04000 326.167
38.08000 300.673
38.12000 313.223
38.16000 305.708
38.20000 320.057
38.24000 317.876
38.28000 324.849
38.32000 343.698
38.36000 369.989
38.40000 403.618
38.44000 429.879
38.48000 492.749
38.52000 554.309
38.56000 665.527
38.60000 772.212
38.64000 854.908
38.68000 940.162
38.72000 995.107
38.76000 924.670
38.80000 898.270
38.84000 778.791
38.88000 683.015
38.92000 578.104
38.96000 493.683
39.00000 429.028
39.04000 387.225
39.08000 356.423
39.12000 341.361
39.16000 320.552
39.20000 318.666
39.24000 315.602
39.28000 300.777
39.32000 292.466
39.36000 290.693
39.40000 299.259
39.44000 284.838
39.48000 282.984
39.52000 295.530
39.56000 277.341
39.60000 270.076
39.64000 278.996
39.68000 278.006
39.72000 274.388
39.76000 274.369
39.80000 270.303
39.84000 284.453
39.88000 276.901
39.92000 274.061
39.96000 278.487
40.00000 265.560
40.04000 276.567
40.08000 267.167
40.12000 266.162
40.16000 252.863
40.20000 265.495
40.24000 261.733
40.28000 269.220
40.32000 269.674
40.36000 244.823
40.40000 271.639
40.44000 252.891
40.48000 248.935
40.52000 254.437
40.56000 253.697
40.60000 260.764
40.64000 275.216
40.68000 248.482
40.72000 264.850
40.76000 244.131
40.80000 255.650
40.84000 249.613
40.88000 225.295
40.92000 257.698
40.96000 257.695
41.00000 252.877
41.04000 252.820
41.08000 246.410
41.12000 260.339
41.16000 256.251
41.20000 247.551
41.24000 236.935
41.28000 251.412
41.32000 233.260
41.36000 256.277
41.40000 254.345
41.44000 245.357
41.48000 241.408
41.52000 247.652
41.56000 240.265
41.60000 239.106
41.64000 242.845
41.68000 231.629
41.72000 241.559
41.76000 241.600
41.80000 245.598
41.84000 227.142
41.88000 244.840
41.92000 241.731
41.96000 240.401
42.00000 237.927
42.04000 247.070
42.08000 238.464
42.12000 227.211
42.16000 230.191
42.20000 245.221
42.24000 226.405
42.28000 251.044
42.32000 237.894
42.36000 242.313
42.40000 241.592
42.44000 229.349
42.48000 231.320
42.52000 239.466
42.56000 242.664
42.60000 234.968
42.64000 233.187
42.68000 225.018
42.72000 231.201
42.76000 259.485
42.80000 238.881
42.84000 227.769
42.88000 232.132
42.92000 234.501
42.96000 229.379
43.00000 230.009
43.04000 229.413
43.08000 227.215
43.12000 244.922
43.16000 234.520
43.20000 252.337
43.24000 240.906
43.28000 246.675
43.32000 237.372
43.36000 239.555
43.40000 222.299
43.44000 229.337
43.48000 238.501
43.52000 235.909
43.56000 234.607
43.60000 231.059
43.64000 239.702
43.68000 236.933
43.72000 238.487
43.76000 230.795
43.80000 241.016
43.84000 224.200
43.88000 228.750
43.92000 216.413
43.96000 219.915
44.00000 225.426
44.04000 223.835
44.08000 225.441
44.12000 213.677
44.16000 247.856
44.20000 231.682
44.24000 219.856
44.28000 241.991
44.32000 236.859
44.36000 227.086
44.40000 242.779
44.44000 245.451
44.48000 246.884
44.52000 228.665
44.56000 260.889
44.60000 267.953
44.64000 273.935
44.68000 270.161
44.72000 268.206
44.76000 293.989
44.80000 322.410
44.84000 330.599
44.88000 361.478
44.92000 392.909
44.96000 404.293
45.00000 436.839
45.04000 458.478
45.08000 447.688
45.12000 469.702
45.16000 462.831
45.20000 415.792
45.24000 406.966
45.28000 406.432
45.32000 354.676
45.36000 328.772
45.40000 325.976
45.44000 313.114
45.48000 314.801
45.52000 295.859
45.56000 284.917
45.60000 272.093
45.64000 278.138
45.68000 263.541
45.72000 259.277
45.76000 251.879
45.80000 252.146
45.84000 242.082
45.88000 233.860
45.92000 239.870
45.96000 228.741
46.00000 216.206
46.04000 212.894
46.08000 215.429
46.12000 206.676
46.16000 214.833
46.20000 203.183
46.24000 210.861
46.28000 213.412
46.32000 209.922
46.36000 206.357
46.40000 204.141
46.44000 207.500
46.48000 206.710
46.52000 205.561
46.56000 211.738
46.60000 208.520
46.64000 197.299
46.68000 205.250
46.72000 202.520
46.76000 195.317
46.80000 200.448
46.84000 201.091
46.88000 196.537
46.92000 200.298
46.96000 198.995
47.00000 200.453
47.04000 200.446
47.08000 201.941
47.12000 192.806
47.16000 181.946
47.20000 195.842
47.24000 194.681
47.28000 204.767
47.32000 190.924
47.36000 200.190
47.40000 193.605
47.44000 186.969
47.48000 198.702
47.52000 204.156
47.56000 198.483
47.60000 198.114
47.64000 188.524
47.68000 198.534
47.72000 195.214
47.76000 190.521
47.80000 182.155
47.84000 187.692
47.88000 186.984
47.92000 187.298
47.96000 188.968
48.00000 189.370
48.04000 175.433
48.08000 183.708
48.12000 182.900
48.16000 178.782
48.20000 191.718
48.24000 170.462
48.28000 188.710
48.32000 177.114
48.36000 187.542
48.40000 195.072
48.44000 189.962
48.48000 189.549
48.52000 181.268
48.56000 185.276
48.60000 176.998
48.64000 183.319
48.68000 188.764
48.72000 183.072
48.76000 179.938
48.80000 181.813
48.84000 181.331
48.88000 172.094
48.92000 169.621
48.96000 174.849
49.00000 188.535
49.04000 173.386
49.08000 180.278
49.12000 178.425
49.16000 171.809
49.20000 170.823
49.24000 180.944
49.28000 184.221
49.32000 178.419
49.36000 176.420
49.40000 175.471
49.44000 184.745
49.48000 181.160
49.52000 176.698
49.56000 177.499
49.60000 184.727
49.64000 181.900
49.68000 174.760
49.72000 185.841
49.76000 178.143
49.80000 166.297
49.84000 180.089
49.88000 177.156
49.92000 178.435
49.96000 182.568
50.00000 185.771
50.04000 184.091
50.08000 186.168
50.12000 183.598
50.16000 200.809
50.20000 179.631
50.24000 183.399
50.28000 177.657
50.32000 196.095
50.36000 185.998
50.40000 199.756
50.44000 200.446
50.48000 207.903
50.52000 228.633
50.56000 234.973
50.60000 241.175
50.64000 245.110
50.68000 267.779
50.72000 276.799
50.76000 257.009
50.80000 248.578
50.84000 265.894
50.88000 246.149
50.92000 225.092
50.96000 222.408
51.00000 208.151
51.04000 207.666
51.08000 202.422
51.12000 192.137
51.16000 203.232
51.20000 189.623
51.24000 184.557
51.28000 180.945
51.32000 178.020
51.36000 184.234
51.40000 178.726
51.44000 176.929
51.48000 168.861
51.52000 179.562
51.56000 176.416
51.60000 173.942
51.64000 177.849
51.68000 168.891
51.72000 171.532
51.76000 166.584
51.80000 168.003
51.84000 160.978
51.88000 160.496
51.92000 161.795
51.96000 165.132
52.00000 159.692
52.04000 171.861
52.08000 171.750
52.12000 169.932
52.16000 168.016
52.20000 167.920
52.24000 162.530
52.28000 167.742
52.32000 165.468
52.36000 161.933
52.40000 163.258
52.44000 162.124
52.48000 169.727
52.52000 163.713
52.56000 156.872
52.60000 163.974
52.64000 161.723
52.68000 161.907
52.72000 165.667
52.76000 158.638
52.80000 172.298
52.84000 156.917
52.88000 156.532
52.92000 150.724
52.96000 164.973
53.00000 152.821
53.04000 159.188
53.08000 162.001
53.12000 160.865
53.16000 154.356
53.20000 161.938
53.24000 151.795
53.28000 165.027
53.32000 159.887
53.36000 155.182
53.40000 152.447
53.44000 165.878
53.48000 153.538
53.52000 158.572
53.56000 170.624
53.60000 175.978
53.64000 164.899
53.68000 156.162
53.72000 153.436
53.76000 151.495
53.80000 163.316
53.84000 152.101
53.88000 160.490
53.92000 165.517
53.96000 144.956
54.00000 150.892
54.04000 155.593
54.08000 155.136
54.12000 153.962
54.16000 156.718
54.20000 165.411
54.24000 153.371
54.28000 155.738
54.32000 156.962
54.36000 152.754
54.40000 149.198
54.44000 160.568
54.48000 153.878
54.52000 154.307
54.56000 154.853
54.60000 154.706
54.64000 153.852
54.68000 164.922
54.72000 161.097
54.76000 159.630
54.80000 168.756
54.84000 159.972
54.88000 154.483
54.92000 175.253
54.96000 161.938
55.00000 158.435
55.04000 158.765
55.08000 159.302
55.12000 152.723
55.16000 168.874
55.20000 186.751
55.24000 169.138
55.28000 172.229
55.32000 178.064
55.36000 180.798
55.40000 176.735
55.44000 193.254
55.48000 196.952
55.52000 201.005
55.56000 224.441
55.60000 241.067
55.64000 273.558
55.68000 296.107
55.72000 328.268
55.76000 380.738
55.80000 435.410
55.84000 482.721
55.88000 513.199
55.92000 553.526
55.96000 578.565
56.00000 579.139
56.04000 553.792
56.08000 510.346
56.12000 486.366
56.16000 432.507
56.20000 387.774
56.24000 360.135
56.28000 328.987
56.32000 283.164
56.36000 261.475
56.40000 250.637
56.44000 213.482
56.48000 209.680
56.52000 193.554
56.56000 202.881
56.60000 192.816
56.64000 183.781
56.68000 175.220
56.72000 166.710
56.76000 177.327
56.80000 163.300
56.84000 159.751
56.88000 160.705
56.92000 155.253
56.96000 159.159
57.00000 159.200
57.04000 148.216
57.08000 160.188
57.12000 155.129
57.16000 149.876
57.20000 153.112
57.24000 150.659
57.28000 149.794
57.32000 146.827
57.36000 148.036
57.40000 150.216
57.44000 143.788
57.48000 152.985
57.52000 146.467
57.56000 147.980
57.60000 133.988
57.64000 141.390
57.68000 141.699
57.72000 148.651
57.76000 142.592
57.80000 153.034
57.84000 150.271
57.88000 138.253
57.92000 155.696
57.96000 146.952
58.00000 141.114
58.04000 136.458
58.08000 140.265
58.12000 141.836
58.16000 149.705
58.20000 149.842
58.24000 150.936
58.28000 140.797
58.32000 130.994
58.36000 143.461
58.40000 147.207
58.44000 137.483
58.48000 135.458
58.52000 137.461
58.56000 138.564
58.60000 139.622
58.64000 133.146
58.68000 142.992
58.72000 143.406
58.76000 140.342
58.80000 140.104
58.84000 140.088
58.88000 134.482
58.92000 127.946
58.96000 133.267
59.00000 127.051
59.04000 139.709
59.08000 142.642
59.12000 141.036
59.16000 129.744
59.20000 136.616
59.24000 137.728
59.28000 134.232
59.32000 130.696
59.36000 146.651
59.40000 129.392
59.44000 126.900
59.48000 136.869
59.52000 135.677
59.56000 139.461
59.60000 131.460
59.64000 137.009
59.68000 134.922
59.72000 138.704
59.76000 133.927
59.80000 137.371
59.84000 135.897
59.88000 142.501
59.92000 129.328
59.96000 134.431
60.00000 135.804
60.04000 133.789
60.08000 126.024
60.12000 127.935
60.16000 137.841
60.20000 128.197
60.24000 136.766
60.28000 135.885
60.32000 128.433
60.36000 137.030
60.40000 135.815
60.44000 134.281
60.48000 135.528
60.52000 132.533
60.56000 127.092
60.60000 131.637
60.64000 136.213
60.68000 126.894
60.72000 140.225
60.76000 134.075
60.80000 141.095
60.84000 129.063
60.88000 137.701
60.92000 133.474
60.96000 127.794
61.00000 140.665
61.04000 125.112
61.08000 145.328
61.12000 135.011
61.16000 126.565
61.20000 138.523
61.24000 145.429
61.28000 140.093
61.32000 139.172
61.36000 137.316
61.40000 141.495
61.44000 141.080
61.48000 148.988
61.52000 169.316
61.56000 223.859
61.60000 271.009
61.64000 310.103
61.68000 339.120
61.72000 345.176
61.76000 329.319
61.80000 268.075
61.84000 195.109
61.88000 169.993
61.92000 163.703
61.96000 151.868
62.00000 139.393
62.04000 143.167
62.08000 146.933
62.12000 154.334
62.16000 149.981
62.20000 139.834
62.24000 145.685
62.28000 160.042
62.32000 146.833
62.36000 144.249
62.40000 152.217
62.44000 139.970
62.48000 150.873
62.52000 153.712
62.56000 149.627
62.60000 142.763
62.64000 149.440
62.68000 138.997
62.72000 149.957
62.76000 143.151
62.80000 146.284
62.84000 147.540
62.88000 145.434
62.92000 155.455
62.96000 138.193
63.00000 153.653
63.04000 139.840
63.08000 147.218
63.12000 147.222
63.16000 159.221
63.20000 153.014
63.24000 152.155
63.28000 155.681
63.32000 152.347
63.36000 160.939
63.40000 155.373
63.44000 152.502
63.48000 157.555
63.52000 154.143
63.56000 157.331
63.60000 145.190
63.64000 143.357
63.68000 167.833
63.72000 155.856
63.76000 154.585
63.80000 157.845
63.84000 142.066
63.88000 158.133
63.92000 165.528
63.96000 172.499
64.00000 163.162
64.04000 168.134
64.08000 166.998
64.12000 165.621
64.16000 158.238
64.20000 172.099
64.24000 160.972
64.28000 146.185
64.32000 163.314
64.36000 167.740
64.40000 169.153
64.44000 174.675
64.48000 172.773
64.52000 167.910
64.56000 160.948
64.60000 179.843
64.64000 170.750
64.68000 170.296
64.72000 177.245
64.76000 173.789
64.80000 178.795
64.84000 183.782
64.88000 197.612
64.92000 184.762
64.96000 200.092
65.00000 196.116
65.04000 216.541
65.08000 207.953
65.12000 211.383
65.16000 225.044
65.20000 233.491
65.24000 254.213
65.28000 265.533
65.32000 283.196
65.36000 315.028
65.40000 324.328
65.44000 379.161
65.48000 391.942
65.52000 413.241
65.56000 446.577
65.60000 476.161
65.64000 493.113
65.68000 577.881
65.72000 765.124
65.76000 1036.222
65.80000 1288.487
65.84000 1404.486
65.88000 1442.207
65.92000 1353.098
65.96000 1211.029
66.00000 856.176
66.04000 597.094
66.08000 440.139
66.12000 382.857
66.16000 347.316
66.20000 353.899
66.24000 363.402
66.28000 400.342
66.32000 467.749
66.36000 496.425
66.40000 526.895
66.44000 545.315
66.48000 524.329
66.52000 474.707
66.56000 427.533
66.60000 372.866
66.64000 353.762
66.68000 352.813
66.72000 354.838
66.76000 356.830
66.80000 338.011
66.84000 352.921
66.88000 368.323
66.92000 363.071
66.96000 379.487
67.00000 366.821
67.04000 391.749
67.08000 392.863
67.12000 401.744
67.16000 397.876
67.20000 427.096
67.24000 435.114
67.28000 415.091
67.32000 422.352
67.36000 430.088
67.40000 436.871
67.44000 459.794
67.48000 462.377
67.52000 447.908
67.56000 495.449
67.60000 473.455
67.64000 512.429
67.68000 494.771
67.72000 533.211
67.76000 526.864
67.80000 556.047
67.84000 527.865
67.88000 563.264
67.92000 571.532
67.96000 591.243
68.00000 586.582
68.04000 620.756
68.08000 621.238
68.12000 633.491
68.16000 630.506
68.20000 674.002
68.24000 694.488
68.28000 701.340
68.32000 731.568
68.36000 744.757
68.40000 812.945
68.44000 841.922
68.48000 873.144
68.52000 934.319
68.56000 1009.242
68.60000 1184.203
68.64000 1367.461
68.68000 1637.079
68.72000 1982.344
68.76000 2328.917
68.80000 2640.793
68.84000 3319.187
68.88000 4579.581
68.92000 8036.471
68.96000 18491.486
69.00000 40279.406
69.04000 64690.309
69.08000 77939.555
69.12000 81414.305
69.16000 84917.633
69.20000 84519.203
69.24000 71750.922
69.28000 55387.074
69.32000 45138.938
69.36000 40248.188
69.40000 33308.656
69.44000 20805.299
69.48000 10040.050
69.52000 4599.491
69.56000 2666.745
69.60000 1951.774
69.64000 1577.474
69.68000 1358.013
69.72000 1223.901
69.76000 1132.286
69.80000 1046.605
69.84000 945.193
69.88000 893.165
69.92000 849.831
69.96000 801.681
70.00000 772.807