File: XRD/22-09-2025 Dep 2/XY Data/BTO_Mapping_Theta2Theta_22-09-2025_001_46_-45-048_-21-694.xy
20.00000 585.761
20.04000 556.501
20.08000 571.009
20.12000 555.644
20.16000 575.257
20.20000 564.721
20.24000 556.185
20.28000 567.406
20.32000 561.889
20.36000 566.089
20.40000 552.530
20.44000 579.121
20.48000 567.809
20.52000 537.534
20.56000 533.722
20.60000 533.235
20.64000 537.387
20.68000 538.984
20.72000 557.035
20.76000 520.119
20.80000 530.288
20.84000 524.329
20.88000 539.273
20.92000 535.300
20.96000 543.688
21.00000 559.075
21.04000 547.447
21.08000 534.864
21.12000 522.928
21.16000 539.141
21.20000 528.232
21.24000 546.729
21.28000 549.458
21.32000 539.979
21.36000 529.094
21.40000 534.212
21.44000 529.804
21.48000 521.709
21.52000 517.946
21.56000 511.833
21.60000 517.339
21.64000 537.629
21.68000 526.192
21.72000 504.507
21.76000 530.704
21.80000 537.569
21.84000 526.060
21.88000 510.325
21.92000 505.245
21.96000 510.077
22.00000 503.459
22.04000 537.786
22.08000 511.967
22.12000 514.211
22.16000 510.928
22.20000 501.148
22.24000 518.504
22.28000 526.082
22.32000 520.490
22.36000 523.184
22.40000 520.526
22.44000 501.647
22.48000 507.788
22.52000 528.669
22.56000 516.451
22.60000 527.580
22.64000 512.467
22.68000 516.937
22.72000 502.942
22.76000 498.340
22.80000 508.146
22.84000 506.491
22.88000 498.746
22.92000 478.233
22.96000 493.432
23.00000 510.739
23.04000 494.065
23.08000 515.838
23.12000 485.177
23.16000 504.352
23.20000 507.909
23.24000 494.477
23.28000 493.316
23.32000 509.669
23.36000 516.835
23.40000 503.593
23.44000 514.092
23.48000 498.266
23.52000 491.202
23.56000 489.079
23.60000 487.638
23.64000 483.999
23.68000 491.247
23.72000 498.412
23.76000 481.472
23.80000 489.457
23.84000 508.246
23.88000 500.483
23.92000 483.636
23.96000 470.923
24.00000 506.957
24.04000 485.093
24.08000 473.404
24.12000 478.322
24.16000 498.545
24.20000 475.883
24.24000 487.462
24.28000 501.565
24.32000 475.911
24.36000 486.381
24.40000 476.574
24.44000 467.068
24.48000 469.097
24.52000 469.547
24.56000 466.517
24.60000 462.272
24.64000 471.982
24.68000 485.357
24.72000 464.079
24.76000 477.937
24.80000 457.808
24.84000 462.821
24.88000 473.553
24.92000 477.439
24.96000 443.306
25.00000 450.966
25.04000 473.468
25.08000 464.442
25.12000 461.857
25.16000 461.880
25.20000 476.748
25.24000 463.531
25.28000 455.154
25.32000 452.170
25.36000 436.232
25.40000 460.821
25.44000 485.174
25.48000 475.425
25.52000 464.299
25.56000 452.646
25.60000 457.151
25.64000 456.716
25.68000 442.779
25.72000 456.824
25.76000 435.227
25.80000 455.786
25.84000 415.284
25.88000 442.252
25.92000 445.644
25.96000 451.008
26.00000 431.561
26.04000 451.301
26.08000 453.769
26.12000 435.509
26.16000 433.641
26.20000 411.599
26.24000 444.424
26.28000 440.873
26.32000 429.870
26.36000 419.640
26.40000 449.682
26.44000 442.742
26.48000 452.946
26.52000 436.803
26.56000 425.602
26.60000 425.491
26.64000 440.621
26.68000 440.389
26.72000 439.582
26.76000 442.588
26.80000 422.597
26.84000 435.015
26.88000 411.577
26.92000 424.357
26.96000 442.595
27.00000 435.719
27.04000 427.836
27.08000 420.923
27.12000 417.772
27.16000 416.813
27.20000 423.876
27.24000 413.193
27.28000 432.485
27.32000 436.645
27.36000 437.733
27.40000 429.099
27.44000 432.301
27.48000 429.686
27.52000 427.025
27.56000 416.839
27.60000 418.337
27.64000 422.545
27.68000 434.379
27.72000 415.015
27.76000 412.457
27.80000 402.288
27.84000 424.573
27.88000 413.333
27.92000 421.839
27.96000 419.161
28.00000 400.268
28.04000 421.221
28.08000 421.072
28.12000 393.758
28.16000 401.042
28.20000 410.847
28.24000 400.173
28.28000 402.991
28.32000 404.165
28.36000 407.839
28.40000 398.330
28.44000 408.866
28.48000 398.046
28.52000 409.099
28.56000 413.510
28.60000 393.155
28.64000 397.029
28.68000 422.520
28.72000 401.988
28.76000 393.958
28.80000 403.638
28.84000 395.297
28.88000 389.670
28.92000 383.875
28.96000 388.759
29.00000 409.352
29.04000 395.808
29.08000 396.472
29.12000 400.601
29.16000 381.007
29.20000 405.006
29.24000 390.910
29.28000 388.788
29.32000 393.134
29.36000 379.221
29.40000 392.699
29.44000 385.307
29.48000 381.286
29.52000 361.055
29.56000 384.378
29.60000 375.991
29.64000 377.267
29.68000 374.022
29.72000 379.566
29.76000 376.851
29.80000 355.713
29.84000 389.643
29.88000 383.574
29.92000 396.575
29.96000 397.588
30.00000 386.527
30.04000 378.141
30.08000 373.289
30.12000 377.551
30.16000 385.228
30.20000 380.267
30.24000 393.995
30.28000 382.263
30.32000 364.311
30.36000 369.649
30.40000 385.479
30.44000 365.463
30.48000 355.157
30.52000 373.740
30.56000 362.681
30.60000 360.941
30.64000 373.379
30.68000 368.241
30.72000 359.499
30.76000 361.867
30.80000 368.660
30.84000 372.523
30.88000 360.596
30.92000 369.867
30.96000 359.099
31.00000 367.296
31.04000 362.738
31.08000 366.345
31.12000 371.102
31.16000 368.037
31.20000 348.898
31.24000 348.800
31.28000 350.405
31.32000 364.262
31.36000 343.749
31.40000 364.352
31.44000 367.277
31.48000 355.976
31.52000 339.996
31.56000 343.424
31.60000 346.396
31.64000 354.401
31.68000 350.139
31.72000 355.413
31.76000 347.199
31.80000 345.024
31.84000 344.170
31.88000 350.954
31.92000 334.319
31.96000 343.917
32.00000 337.544
32.04000 349.580
32.08000 330.570
32.12000 358.842
32.16000 334.142
32.20000 326.536
32.24000 346.029
32.28000 335.775
32.32000 351.506
32.36000 347.050
32.40000 353.852
32.44000 328.935
32.48000 350.782
32.52000 363.829
32.56000 339.373
32.60000 322.072
32.64000 351.747
32.68000 347.308
32.72000 335.790
32.76000 331.241
32.80000 338.668
32.84000 321.409
32.88000 343.633
32.92000 327.264
32.96000 351.818
33.00000 345.153
33.04000 346.072
33.08000 341.086
33.12000 328.918
33.16000 323.379
33.20000 318.581
33.24000 334.484
33.28000 315.261
33.32000 328.427
33.36000 318.804
33.40000 337.224
33.44000 325.374
33.48000 334.696
33.52000 314.517
33.56000 315.024
33.60000 318.338
33.64000 330.505
33.68000 324.372
33.72000 315.328
33.76000 325.306
33.80000 308.167
33.84000 334.378
33.88000 315.597
33.92000 324.703
33.96000 328.518
34.00000 312.926
34.04000 326.133
34.08000 315.368
34.12000 313.279
34.16000 318.001
34.20000 336.124
34.24000 305.369
34.28000 306.098
34.32000 323.620
34.36000 310.263
34.40000 315.200
34.44000 319.595
34.48000 298.928
34.52000 288.955
34.56000 306.053
34.60000 314.729
34.64000 290.454
34.68000 306.051
34.72000 303.900
34.76000 309.957
34.80000 317.260
34.84000 297.396
34.88000 313.405
34.92000 312.319
34.96000 302.348
35.00000 303.747
35.04000 313.114
35.08000 307.307
35.12000 311.142
35.16000 297.505
35.20000 297.063
35.24000 293.696
35.28000 304.030
35.32000 282.315
35.36000 290.910
35.40000 300.446
35.44000 298.534
35.48000 310.298
35.52000 297.517
35.56000 302.880
35.60000 300.003
35.64000 309.590
35.68000 288.664
35.72000 284.233
35.76000 296.983
35.80000 293.276
35.84000 300.162
35.88000 288.216
35.92000 288.760
35.96000 284.676
36.00000 294.414
36.04000 274.153
36.08000 295.598
36.12000 284.672
36.16000 282.901
36.20000 293.535
36.24000 284.297
36.28000 282.807
36.32000 284.646
36.36000 285.659
36.40000 295.984
36.44000 286.127
36.48000 278.958
36.52000 291.925
36.56000 289.529
36.60000 282.469
36.64000 287.253
36.68000 282.292
36.72000 279.139
36.76000 277.635
36.80000 292.584
36.84000 277.021
36.88000 285.998
36.92000 294.870
36.96000 268.777
37.00000 292.020
37.04000 277.357
37.08000 276.633
37.12000 283.727
37.16000 277.713
37.20000 275.017
37.24000 247.152
37.28000 270.123
37.32000 277.091
37.36000 279.146
37.40000 272.341
37.44000 277.124
37.48000 269.402
37.52000 277.814
37.56000 277.973
37.60000 259.073
37.64000 288.162
37.68000 266.347
37.72000 276.361
37.76000 260.208
37.80000 265.208
37.84000 274.076
37.88000 264.582
37.92000 270.474
37.96000 251.339
38.00000 266.924
38.04000 260.801
38.08000 266.876
38.12000 270.071
38.16000 269.576
38.20000 257.051
38.24000 253.774
38.28000 276.506
38.32000 253.872
38.36000 257.948
38.40000 255.984
38.44000 265.193
38.48000 266.907
38.52000 266.894
38.56000 250.753
38.60000 257.509
38.64000 262.545
38.68000 243.239
38.72000 260.260
38.76000 253.797
38.80000 260.643
38.84000 255.864
38.88000 248.800
38.92000 264.217
38.96000 257.553
39.00000 267.658
39.04000 256.665
39.08000 254.596
39.12000 255.979
39.16000 247.956
39.20000 233.355
39.24000 240.961
39.28000 252.722
39.32000 250.859
39.36000 250.708
39.40000 251.751
39.44000 245.556
39.48000 244.681
39.52000 251.460
39.56000 237.678
39.60000 236.165
39.64000 235.892
39.68000 252.715
39.72000 241.863
39.76000 238.567
39.80000 245.708
39.84000 233.232
39.88000 246.550
39.92000 246.237
39.96000 260.484
40.00000 239.604
40.04000 239.154
40.08000 241.116
40.12000 227.715
40.16000 231.704
40.20000 243.608
40.24000 244.114
40.28000 239.579
40.32000 244.618
40.36000 250.271
40.40000 229.943
40.44000 234.181
40.48000 241.189
40.52000 237.006
40.56000 226.721
40.60000 229.704
40.64000 230.418
40.68000 224.784
40.72000 224.898
40.76000 225.776
40.80000 231.887
40.84000 232.234
40.88000 247.600
40.92000 231.803
40.96000 219.969
41.00000 224.646
41.04000 226.281
41.08000 211.544
41.12000 231.111
41.16000 223.480
41.20000 214.886
41.24000 215.765
41.28000 225.699
41.32000 237.258
41.36000 227.502
41.40000 225.314
41.44000 220.758
41.48000 227.311
41.52000 224.077
41.56000 229.243
41.60000 229.035
41.64000 203.799
41.68000 213.400
41.72000 219.801
41.76000 226.642
41.80000 224.747
41.84000 228.223
41.88000 221.719
41.92000 215.296
41.96000 218.965
42.00000 224.908
42.04000 221.118
42.08000 223.255
42.12000 228.508
42.16000 221.462
42.20000 224.405
42.24000 205.670
42.28000 224.382
42.32000 222.351
42.36000 217.032
42.40000 222.003
42.44000 210.770
42.48000 226.537
42.52000 214.902
42.56000 201.120
42.60000 211.215
42.64000 214.364
42.68000 207.304
42.72000 217.180
42.76000 213.988
42.80000 215.494
42.84000 221.031
42.88000 215.453
42.92000 221.716
42.96000 214.508
43.00000 206.217
43.04000 213.576
43.08000 223.812
43.12000 213.066
43.16000 207.527
43.20000 210.532
43.24000 214.063
43.28000 210.400
43.32000 209.036
43.36000 204.047
43.40000 196.455
43.44000 210.135
43.48000 218.760
43.52000 205.217
43.56000 212.328
43.60000 205.290
43.64000 203.928
43.68000 214.126
43.72000 216.923
43.76000 211.221
43.80000 200.703
43.84000 206.720
43.88000 200.101
43.92000 204.226
43.96000 205.219
44.00000 195.040
44.04000 204.459
44.08000 207.454
44.12000 199.501
44.16000 193.618
44.20000 204.501
44.24000 186.067
44.28000 189.636
44.32000 202.417
44.36000 200.169
44.40000 201.010
44.44000 208.085
44.48000 192.110
44.52000 195.321
44.56000 193.182
44.60000 198.618
44.64000 210.817
44.68000 199.314
44.72000 188.459
44.76000 190.455
44.80000 197.846
44.84000 197.026
44.88000 196.136
44.92000 189.666
44.96000 213.420
45.00000 183.211
45.04000 186.933
45.08000 191.574
45.12000 196.753
45.16000 194.287
45.20000 198.389
45.24000 196.330
45.28000 189.191
45.32000 197.764
45.36000 195.598
45.40000 197.900
45.44000 195.834
45.48000 184.979
45.52000 184.320
45.56000 183.235
45.60000 179.610
45.64000 186.684
45.68000 166.609
45.72000 188.539
45.76000 189.322
45.80000 197.219
45.84000 180.526
45.88000 178.909
45.92000 194.531
45.96000 192.714
46.00000 187.124
46.04000 194.314
46.08000 190.812
46.12000 171.406
46.16000 180.371
46.20000 191.171
46.24000 176.078
46.28000 182.889
46.32000 165.754
46.36000 189.343
46.40000 185.470
46.44000 186.696
46.48000 181.523
46.52000 176.187
46.56000 178.896
46.60000 175.001
46.64000 174.518
46.68000 169.743
46.72000 180.573
46.76000 171.482
46.80000 184.071
46.84000 179.468
46.88000 180.927
46.92000 178.475
46.96000 165.347
47.00000 182.048
47.04000 162.773
47.08000 183.348
47.12000 174.701
47.16000 189.508
47.20000 177.544
47.24000 178.459
47.28000 168.283
47.32000 180.947
47.36000 173.912
47.40000 170.532
47.44000 171.044
47.48000 187.910
47.52000 170.490
47.56000 184.077
47.60000 172.561
47.64000 181.936
47.68000 168.065
47.72000 188.719
47.76000 165.252
47.80000 171.475
47.84000 173.306
47.88000 162.863
47.92000 180.158
47.96000 169.187
48.00000 178.398
48.04000 169.833
48.08000 174.694
48.12000 179.963
48.16000 165.342
48.20000 171.927
48.24000 173.295
48.28000 157.328
48.32000 170.597
48.36000 165.102
48.40000 165.959
48.44000 171.746
48.48000 165.937
48.52000 165.055
48.56000 166.366
48.60000 162.726
48.64000 164.137
48.68000 159.988
48.72000 176.956
48.76000 154.928
48.80000 164.996
48.84000 166.498
48.88000 164.179
48.92000 172.760
48.96000 154.807
49.00000 163.676
49.04000 151.610
49.08000 168.920
49.12000 168.016
49.16000 171.557
49.20000 159.601
49.24000 152.425
49.28000 154.917
49.32000 169.881
49.36000 158.061
49.40000 162.215
49.44000 149.091
49.48000 164.279
49.52000 152.576
49.56000 167.523
49.60000 159.333
49.64000 153.192
49.68000 160.796
49.72000 158.275
49.76000 160.091
49.80000 156.642
49.84000 157.750
49.88000 153.630
49.92000 149.652
49.96000 143.929
50.00000 160.362
50.04000 164.930
50.08000 159.624
50.12000 149.200
50.16000 153.788
50.20000 154.105
50.24000 158.193
50.28000 151.307
50.32000 153.713
50.36000 150.536
50.40000 147.018
50.44000 154.294
50.48000 150.105
50.52000 145.897
50.56000 149.001
50.60000 156.791
50.64000 158.239
50.68000 161.475
50.72000 155.067
50.76000 144.921
50.80000 155.426
50.84000 151.767
50.88000 153.408
50.92000 157.137
50.96000 150.375
51.00000 133.942
51.04000 152.648
51.08000 144.324
51.12000 151.584
51.16000 156.487
51.20000 155.248
51.24000 153.744
51.28000 154.190
51.32000 162.607
51.36000 157.482
51.40000 153.795
51.44000 142.633
51.48000 149.940
51.52000 146.058
51.56000 155.402
51.60000 141.900
51.64000 153.744
51.68000 147.246
51.72000 151.236
51.76000 144.587
51.80000 154.238
51.84000 143.545
51.88000 151.349
51.92000 148.582
51.96000 145.796
52.00000 147.731
52.04000 135.150
52.08000 152.089
52.12000 140.416
52.16000 140.467
52.20000 153.790
52.24000 141.023
52.28000 133.717
52.32000 142.241
52.36000 148.029
52.40000 133.430
52.44000 137.981
52.48000 146.267
52.52000 136.693
52.56000 152.722
52.60000 155.970
52.64000 143.956
52.68000 142.078
52.72000 143.595
52.76000 152.086
52.80000 150.597
52.84000 131.054
52.88000 132.987
52.92000 142.356
52.96000 139.656
53.00000 135.163
53.04000 137.936
53.08000 131.912
53.12000 133.219
53.16000 140.083
53.20000 144.085
53.24000 134.261
53.28000 155.063
53.32000 137.885
53.36000 141.413
53.40000 149.766
53.44000 148.938
53.48000 143.198
53.52000 126.638
53.56000 140.237
53.60000 139.842
53.64000 136.878
53.68000 139.203
53.72000 130.297
53.76000 136.741
53.80000 138.916
53.84000 141.714
53.88000 130.408
53.92000 138.236
53.96000 135.517
54.00000 127.664
54.04000 126.625
54.08000 131.794
54.12000 130.136
54.16000 140.518
54.20000 127.679
54.24000 128.727
54.28000 135.346
54.32000 132.385
54.36000 135.763
54.40000 152.059
54.44000 138.386
54.48000 131.968
54.52000 126.717
54.56000 136.748
54.60000 129.557
54.64000 135.380
54.68000 138.169
54.72000 125.758
54.76000 139.552
54.80000 126.869
54.84000 134.709
54.88000 129.101
54.92000 123.869
54.96000 123.012
55.00000 128.169
55.04000 129.469
55.08000 131.948
55.12000 128.043
55.16000 129.704
55.20000 134.136
55.24000 129.634
55.28000 123.093
55.32000 125.221
55.36000 128.838
55.40000 124.826
55.44000 130.873
55.48000 114.107
55.52000 126.599
55.56000 123.954
55.60000 127.878
55.64000 124.454
55.68000 131.164
55.72000 127.672
55.76000 131.875
55.80000 132.316
55.84000 124.354
55.88000 122.024
55.92000 131.740
55.96000 127.814
56.00000 131.821
56.04000 120.609
56.08000 129.999
56.12000 128.113
56.16000 127.814
56.20000 123.590
56.24000 128.553
56.28000 131.032
56.32000 123.162
56.36000 124.412
56.40000 125.124
56.44000 122.897
56.48000 127.189
56.52000 124.176
56.56000 123.690
56.60000 124.782
56.64000 136.175
56.68000 124.598
56.72000 114.857
56.76000 122.352
56.80000 133.152
56.84000 124.503
56.88000 122.173
56.92000 123.626
56.96000 120.762
57.00000 118.167
57.04000 120.895
57.08000 116.373
57.12000 124.209
57.16000 112.464
57.20000 125.713
57.24000 112.706
57.28000 123.624
57.32000 118.565
57.36000 117.388
57.40000 115.290
57.44000 120.030
57.48000 123.738
57.52000 123.337
57.56000 117.829
57.60000 115.132
57.64000 114.517
57.68000 124.062
57.72000 116.980
57.76000 119.687
57.80000 116.970
57.84000 126.280
57.88000 119.795
57.92000 112.157
57.96000 118.114
58.00000 127.123
58.04000 113.283
58.08000 114.054
58.12000 127.997
58.16000 117.738
58.20000 111.929
58.24000 119.760
58.28000 110.116
58.32000 120.235
58.36000 111.991
58.40000 108.425
58.44000 116.960
58.48000 113.205
58.52000 109.615
58.56000 116.911
58.60000 119.533
58.64000 121.615
58.68000 123.176
58.72000 105.246
58.76000 113.260
58.80000 114.549
58.84000 114.997
58.88000 118.565
58.92000 117.521
58.96000 110.375
59.00000 121.281
59.04000 109.876
59.08000 120.320
59.12000 111.843
59.16000 109.487
59.20000 119.355
59.24000 113.737
59.28000 115.950
59.32000 112.116
59.36000 109.751
59.40000 109.949
59.44000 108.103
59.48000 111.953
59.52000 111.739
59.56000 117.929
59.60000 109.706
59.64000 113.851
59.68000 108.569
59.72000 111.730
59.76000 108.539
59.80000 115.918
59.84000 107.847
59.88000 109.552
59.92000 112.999
59.96000 111.166
60.00000 110.717
60.04000 112.491
60.08000 115.966
60.12000 108.828
60.16000 115.234
60.20000 110.294
60.24000 109.087
60.28000 109.933
60.32000 107.569
60.36000 112.819
60.40000 107.959
60.44000 106.366
60.48000 114.030
60.52000 122.355
60.56000 115.147
60.60000 104.660
60.64000 110.687
60.68000 109.496
60.72000 108.870
60.76000 107.911
60.80000 110.682
60.84000 111.950
60.88000 107.195
60.92000 110.036
60.96000 111.447
61.00000 111.320
61.04000 105.012
61.08000 106.332
61.12000 113.974
61.16000 116.795
61.20000 106.234
61.24000 112.755
61.28000 112.562
61.32000 115.149
61.36000 102.690
61.40000 107.619
61.44000 106.975
61.48000 109.722
61.52000 113.575
61.56000 104.673
61.60000 116.066
61.64000 119.567
61.68000 130.032
61.72000 125.751
61.76000 132.218
61.80000 139.206
61.84000 121.407
61.88000 123.136
61.92000 115.343
61.96000 106.595
62.00000 109.104
62.04000 110.610
62.08000 121.735
62.12000 108.547
62.16000 112.338
62.20000 109.902
62.24000 107.505
62.28000 91.992
62.32000 108.533
62.36000 105.581
62.40000 108.544
62.44000 106.176
62.48000 97.384
62.52000 109.504
62.56000 104.762
62.60000 112.328
62.64000 100.203
62.68000 111.457
62.72000 98.864
62.76000 103.305
62.80000 102.501
62.84000 106.026
62.88000 106.800
62.92000 111.141
62.96000 103.309
63.00000 93.133
63.04000 108.422
63.08000 108.245
63.12000 105.821
63.16000 99.115
63.20000 98.645
63.24000 103.288
63.28000 107.226
63.32000 109.378
63.36000 112.231
63.40000 108.909
63.44000 101.786
63.48000 103.635
63.52000 106.312
63.56000 102.985
63.60000 101.971
63.64000 107.587
63.68000 108.331
63.72000 114.608
63.76000 108.916
63.80000 110.109
63.84000 105.528
63.88000 104.202
63.92000 109.398
63.96000 107.770
64.00000 110.768
64.04000 110.683
64.08000 119.963
64.12000 111.404
64.16000 106.752
64.20000 108.796
64.24000 105.715
64.28000 108.559
64.32000 106.229
64.36000 107.360
64.40000 115.475
64.44000 114.666
64.48000 114.500
64.52000 107.671
64.56000 108.185
64.60000 103.453
64.64000 103.825
64.68000 110.950
64.72000 105.089
64.76000 106.616
64.80000 108.439
64.84000 110.670
64.88000 111.319
64.92000 112.037
64.96000 113.796
65.00000 117.548
65.04000 114.988
65.08000 112.262
65.12000 109.824
65.16000 109.763
65.20000 107.746
65.24000 111.857
65.28000 114.579
65.32000 114.451
65.36000 107.255
65.40000 102.706
65.44000 114.132
65.48000 119.423
65.52000 116.690
65.56000 123.310
65.60000 118.761
65.64000 112.919
65.68000 129.698
65.72000 131.792
65.76000 136.537
65.80000 162.196
65.84000 185.729
65.88000 232.600
65.92000 249.587
65.96000 246.455
66.00000 245.884
66.04000 223.977
66.08000 169.716
66.12000 149.339
66.16000 129.615
66.20000 125.681
66.24000 133.469
66.28000 139.547
66.32000 135.255
66.36000 129.603
66.40000 142.352
66.44000 144.775
66.48000 168.169
66.52000 156.810
66.56000 162.932
66.60000 151.849
66.64000 140.447
66.68000 133.091
66.72000 127.767
66.76000 128.052
66.80000 136.881
66.84000 143.626
66.88000 138.621
66.92000 138.396
66.96000 133.420
67.00000 141.038
67.04000 139.716
67.08000 139.327
67.12000 128.961
67.16000 135.161
67.20000 149.569
67.24000 139.942
67.28000 156.933
67.32000 145.511
67.36000 139.561
67.40000 142.541
67.44000 149.616
67.48000 152.648
67.52000 153.884
67.56000 150.539
67.60000 144.978
67.64000 155.947
67.68000 154.849
67.72000 157.524
67.76000 161.842
67.80000 162.262
67.84000 169.433
67.88000 169.250
67.92000 170.585
67.96000 156.933
68.00000 169.702
68.04000 177.817
68.08000 179.131
68.12000 168.117
68.16000 175.559
68.20000 175.403
68.24000 184.985
68.28000 188.428
68.32000 187.921
68.36000 195.075
68.40000 206.538
68.44000 196.162
68.48000 198.487
68.52000 230.573
68.56000 222.122
68.60000 239.538
68.64000 267.402
68.68000 270.220
68.72000 319.060
68.76000 363.461
68.80000 425.354
68.84000 479.926
68.88000 541.499
68.92000 636.370
68.96000 824.095
69.00000 1202.498
69.04000 2317.709
69.08000 4963.413
69.12000 8433.465
69.16000 9514.475
69.20000 10103.983
69.24000 10886.623
69.28000 10592.155
69.32000 7822.030
69.36000 5675.278
69.40000 5288.659
69.44000 5165.875
69.48000 4099.211
69.52000 1982.739
69.56000 765.456
69.60000 466.582
69.64000 381.633
69.68000 325.924
69.72000 297.746
69.76000 261.835
69.80000 267.749
69.84000 236.846
69.88000 238.774
69.92000 218.940
69.96000 214.750
70.00000 218.921