File: XRD/22-09-2025 Dep 2/XY Data/BTO_Mapping_Theta2Theta_22-09-2025_001_65_24-940_-31-273.xy
20.00000 565.754
20.04000 567.245
20.08000 550.399
20.12000 587.688
20.16000 582.849
20.20000 577.463
20.24000 555.131
20.28000 561.661
20.32000 573.140
20.36000 558.170
20.40000 569.038
20.44000 537.817
20.48000 558.793
20.52000 542.996
20.56000 574.626
20.60000 561.443
20.64000 548.266
20.68000 554.257
20.72000 563.514
20.76000 551.091
20.80000 538.059
20.84000 566.429
20.88000 541.024
20.92000 552.448
20.96000 560.542
21.00000 566.036
21.04000 544.274
21.08000 554.545
21.12000 534.015
21.16000 570.743
21.20000 536.562
21.24000 530.972
21.28000 545.059
21.32000 540.495
21.36000 535.237
21.40000 560.167
21.44000 560.687
21.48000 566.766
21.52000 535.250
21.56000 527.565
21.60000 552.704
21.64000 557.084
21.68000 584.343
21.72000 569.984
21.76000 563.272
21.80000 571.346
21.84000 582.238
21.88000 604.961
21.92000 620.852
21.96000 623.916
22.00000 659.598
22.04000 681.140
22.08000 688.631
22.12000 702.976
22.16000 705.849
22.20000 697.617
22.24000 709.371
22.28000 688.541
22.32000 650.622
22.36000 631.760
22.40000 636.828
22.44000 618.843
22.48000 586.716
22.52000 578.852
22.56000 550.746
22.60000 524.753
22.64000 540.545
22.68000 540.120
22.72000 538.232
22.76000 522.014
22.80000 528.270
22.84000 541.475
22.88000 513.997
22.92000 520.195
22.96000 532.492
23.00000 519.788
23.04000 523.616
23.08000 527.645
23.12000 521.924
23.16000 500.173
23.20000 519.176
23.24000 503.917
23.28000 508.016
23.32000 533.519
23.36000 503.076
23.40000 506.824
23.44000 504.602
23.48000 499.644
23.52000 519.271
23.56000 493.345
23.60000 517.742
23.64000 510.344
23.68000 504.635
23.72000 504.756
23.76000 525.228
23.80000 528.791
23.84000 529.326
23.88000 510.691
23.92000 543.605
23.96000 517.482
24.00000 525.237
24.04000 502.384
24.08000 542.160
24.12000 534.059
24.16000 519.849
24.20000 493.975
24.24000 490.486
24.28000 507.612
24.32000 495.628
24.36000 496.861
24.40000 494.363
24.44000 495.329
24.48000 508.003
24.52000 485.784
24.56000 505.488
24.60000 487.572
24.64000 475.167
24.68000 473.394
24.72000 479.493
24.76000 485.797
24.80000 481.205
24.84000 484.591
24.88000 458.914
24.92000 472.727
24.96000 470.356
25.00000 473.716
25.04000 469.867
25.08000 470.623
25.12000 464.250
25.16000 471.585
25.20000 468.572
25.24000 490.481
25.28000 482.754
25.32000 482.135
25.36000 476.927
25.40000 491.205
25.44000 494.399
25.48000 467.788
25.52000 464.547
25.56000 477.020
25.60000 459.070
25.64000 476.129
25.68000 464.299
25.72000 470.908
25.76000 464.576
25.80000 462.164
25.84000 472.381
25.88000 458.139
25.92000 468.530
25.96000 458.891
26.00000 450.378
26.04000 463.465
26.08000 471.167
26.12000 463.782
26.16000 454.984
26.20000 463.149
26.24000 461.056
26.28000 441.526
26.32000 437.717
26.36000 457.829
26.40000 447.259
26.44000 460.314
26.48000 465.020
26.52000 450.013
26.56000 471.383
26.60000 465.413
26.64000 455.498
26.68000 449.990
26.72000 441.664
26.76000 446.601
26.80000 448.480
26.84000 441.379
26.88000 466.127
26.92000 454.728
26.96000 447.230
27.00000 436.962
27.04000 449.493
27.08000 447.388
27.12000 457.102
27.16000 455.584
27.20000 451.393
27.24000 426.145
27.28000 447.573
27.32000 435.888
27.36000 454.663
27.40000 436.604
27.44000 441.142
27.48000 430.915
27.52000 442.683
27.56000 443.652
27.60000 433.332
27.64000 447.111
27.68000 432.832
27.72000 443.770
27.76000 438.348
27.80000 423.115
27.84000 432.061
27.88000 439.230
27.92000 425.959
27.96000 433.747
28.00000 435.630
28.04000 439.854
28.08000 447.707
28.12000 419.600
28.16000 426.365
28.20000 432.040
28.24000 443.411
28.28000 427.228
28.32000 426.757
28.36000 424.479
28.40000 427.370
28.44000 407.494
28.48000 419.278
28.52000 412.602
28.56000 404.352
28.60000 418.397
28.64000 430.725
28.68000 416.027
28.72000 418.406
28.76000 407.026
28.80000 416.202
28.84000 428.704
28.88000 393.126
28.92000 410.844
28.96000 409.971
29.00000 422.245
29.04000 430.534
29.08000 409.422
29.12000 420.572
29.16000 423.253
29.20000 400.748
29.24000 413.249
29.28000 419.640
29.32000 421.979
29.36000 409.053
29.40000 407.039
29.44000 407.241
29.48000 397.272
29.52000 415.175
29.56000 407.021
29.60000 416.563
29.64000 413.271
29.68000 406.613
29.72000 395.186
29.76000 418.000
29.80000 421.035
29.84000 424.835
29.88000 428.976
29.92000 412.284
29.96000 426.808
30.00000 440.057
30.04000 450.656
30.08000 420.748
30.12000 435.658
30.16000 439.852
30.20000 443.337
30.24000 430.395
30.28000 432.362
30.32000 422.390
30.36000 429.692
30.40000 409.732
30.44000 434.576
30.48000 419.053
30.52000 424.516
30.56000 434.893
30.60000 416.405
30.64000 426.722
30.68000 435.429
30.72000 432.183
30.76000 438.245
30.80000 437.231
30.84000 440.493
30.88000 449.769
30.92000 483.587
30.96000 497.396
31.00000 514.336
31.04000 556.096
31.08000 590.770
31.12000 668.599
31.16000 793.201
31.20000 969.127
31.24000 1222.080
31.28000 1515.005
31.32000 1912.399
31.36000 2225.138
31.40000 2410.208
31.44000 2461.120
31.48000 2430.774
31.52000 2246.588
31.56000 1938.472
31.60000 1587.325
31.64000 1296.414
31.68000 1055.323
31.72000 863.809
31.76000 754.684
31.80000 675.743
31.84000 586.432
31.88000 542.563
31.92000 494.008
31.96000 496.851
32.00000 462.117
32.04000 459.514
32.08000 440.410
32.12000 423.855
32.16000 417.642
32.20000 405.601
32.24000 401.971
32.28000 421.756
32.32000 393.026
32.36000 383.866
32.40000 389.085
32.44000 409.730
32.48000 393.567
32.52000 378.667
32.56000 382.208
32.60000 385.026
32.64000 380.433
32.68000 372.938
32.72000 360.081
32.76000 377.604
32.80000 382.228
32.84000 372.970
32.88000 393.056
32.92000 385.135
32.96000 407.597
33.00000 404.917
33.04000 388.442
33.08000 368.707
33.12000 363.395
33.16000 361.752
33.20000 346.521
33.24000 353.380
33.28000 339.172
33.32000 343.948
33.36000 336.671
33.40000 348.451
33.44000 339.319
33.48000 359.839
33.52000 340.370
33.56000 338.992
33.60000 349.678
33.64000 338.007
33.68000 353.825
33.72000 342.266
33.76000 339.268
33.80000 339.328
33.84000 347.533
33.88000 325.141
33.92000 346.938
33.96000 349.081
34.00000 334.683
34.04000 349.460
34.08000 338.507
34.12000 355.368
34.16000 348.040
34.20000 352.758
34.24000 339.842
34.28000 334.764
34.32000 355.729
34.36000 346.082
34.40000 344.678
34.44000 341.960
34.48000 348.575
34.52000 347.879
34.56000 319.547
34.60000 343.791
34.64000 339.978
34.68000 343.873
34.72000 348.867
34.76000 339.032
34.80000 322.391
34.84000 315.279
34.88000 323.923
34.92000 321.295
34.96000 327.354
35.00000 328.758
35.04000 319.294
35.08000 327.911
35.12000 318.290
35.16000 316.738
35.20000 319.626
35.24000 337.405
35.28000 315.913
35.32000 310.845
35.36000 309.912
35.40000 309.026
35.44000 312.184
35.48000 310.774
35.52000 312.140
35.56000 328.842
35.60000 318.369
35.64000 315.017
35.68000 314.492
35.72000 304.897
35.76000 319.598
35.80000 304.363
35.84000 303.176
35.88000 303.866
35.92000 304.784
35.96000 320.088
36.00000 310.651
36.04000 316.855
36.08000 311.886
36.12000 300.494
36.16000 309.267
36.20000 293.502
36.24000 297.825
36.28000 293.544
36.32000 298.222
36.36000 292.557
36.40000 298.224
36.44000 304.101
36.48000 293.934
36.52000 287.892
36.56000 294.817
36.60000 289.057
36.64000 304.389
36.68000 290.168
36.72000 304.942
36.76000 293.594
36.80000 308.499
36.84000 298.452
36.88000 296.064
36.92000 310.481
36.96000 309.303
37.00000 323.125
37.04000 285.980
37.08000 295.684
37.12000 302.552
37.16000 298.314
37.20000 295.812
37.24000 314.092
37.28000 286.775
37.32000 288.684
37.36000 278.001
37.40000 281.006
37.44000 273.389
37.48000 302.327
37.52000 281.813
37.56000 285.607
37.60000 297.136
37.64000 283.919
37.68000 280.466
37.72000 291.458
37.76000 298.996
37.80000 288.261
37.84000 297.381
37.88000 288.824
37.92000 293.383
37.96000 296.322
38.00000 281.106
38.04000 289.642
38.08000 301.141
38.12000 287.380
38.16000 287.388
38.20000 290.096
38.24000 305.177
38.28000 307.841
38.32000 322.453
38.36000 314.454
38.40000 333.271
38.44000 356.539
38.48000 376.788
38.52000 414.759
38.56000 494.580
38.60000 577.291
38.64000 705.312
38.68000 852.216
38.72000 925.660
38.76000 1010.516
38.80000 1037.359
38.84000 1012.995
38.88000 899.745
38.92000 779.921
38.96000 645.796
39.00000 524.818
39.04000 454.576
39.08000 387.628
39.12000 372.214
39.16000 333.868
39.20000 319.210
39.24000 296.671
39.28000 287.332
39.32000 287.169
39.36000 289.954
39.40000 290.252
39.44000 278.248
39.48000 272.856
39.52000 288.615
39.56000 275.552
39.60000 272.028
39.64000 266.967
39.68000 275.092
39.72000 262.823
39.76000 279.753
39.80000 269.903
39.84000 279.544
39.88000 258.740
39.92000 269.894
39.96000 271.539
40.00000 265.132
40.04000 258.431
40.08000 259.719
40.12000 264.495
40.16000 256.165
40.20000 257.015
40.24000 253.183
40.28000 258.826
40.32000 259.347
40.36000 254.106
40.40000 259.393
40.44000 259.615
40.48000 257.552
40.52000 253.831
40.56000 237.920
40.60000 236.537
40.64000 253.529
40.68000 244.614
40.72000 250.593
40.76000 249.849
40.80000 253.094
40.84000 250.657
40.88000 261.948
40.92000 254.541
40.96000 235.196
41.00000 263.542
41.04000 238.771
41.08000 239.062
41.12000 256.244
41.16000 249.322
41.20000 248.779
41.24000 242.408
41.28000 258.009
41.32000 267.241
41.36000 246.827
41.40000 253.150
41.44000 248.754
41.48000 241.923
41.52000 239.921
41.56000 240.192
41.60000 244.920
41.64000 249.549
41.68000 247.394
41.72000 238.845
41.76000 238.691
41.80000 237.130
41.84000 229.311
41.88000 241.794
41.92000 246.907
41.96000 239.386
42.00000 225.540
42.04000 250.674
42.08000 232.905
42.12000 242.078
42.16000 238.408
42.20000 242.454
42.24000 250.762
42.28000 239.709
42.32000 234.238
42.36000 237.274
42.40000 223.060
42.44000 222.952
42.48000 232.937
42.52000 220.951
42.56000 240.159
42.60000 230.573
42.64000 236.621
42.68000 236.214
42.72000 228.405
42.76000 214.792
42.80000 226.179
42.84000 228.394
42.88000 221.368
42.92000 226.359
42.96000 244.936
43.00000 237.491
43.04000 216.831
43.08000 240.390
43.12000 237.887
43.16000 229.510
43.20000 220.789
43.24000 232.800
43.28000 226.251
43.32000 237.445
43.36000 228.619
43.40000 243.180
43.44000 222.966
43.48000 224.550
43.52000 215.819
43.56000 225.359
43.60000 217.876
43.64000 220.381
43.68000 232.174
43.72000 240.635
43.76000 235.011
43.80000 218.151
43.84000 231.748
43.88000 243.851
43.92000 223.560
43.96000 237.664
44.00000 228.065
44.04000 222.519
44.08000 224.924
44.12000 235.333
44.16000 223.870
44.20000 220.945
44.24000 230.772
44.28000 224.447
44.32000 230.494
44.36000 220.411
44.40000 221.638
44.44000 230.535
44.48000 234.880
44.52000 229.682
44.56000 252.249
44.60000 234.319
44.64000 233.095
44.68000 249.691
44.72000 244.254
44.76000 241.339
44.80000 254.689
44.84000 257.952
44.88000 271.950
44.92000 279.568
44.96000 287.009
45.00000 290.214
45.04000 303.520
45.08000 326.517
45.12000 318.376
45.16000 349.591
45.20000 321.145
45.24000 324.576
45.28000 317.381
45.32000 331.027
45.36000 319.372
45.40000 318.384
45.44000 324.271
45.48000 300.683
45.52000 269.689
45.56000 270.245
45.60000 283.194
45.64000 276.476
45.68000 259.394
45.72000 247.905
45.76000 245.893
45.80000 241.153
45.84000 239.370
45.88000 235.956
45.92000 226.149
45.96000 222.261
46.00000 226.612
46.04000 222.173
46.08000 217.688
46.12000 236.526
46.16000 211.752
46.20000 209.548
46.24000 210.354
46.28000 204.359
46.32000 201.279
46.36000 216.684
46.40000 205.763
46.44000 192.711
46.48000 198.971
46.52000 204.645
46.56000 191.683
46.60000 194.641
46.64000 205.407
46.68000 203.565
46.72000 204.958
46.76000 194.405
46.80000 192.590
46.84000 204.111
46.88000 194.118
46.92000 196.985
46.96000 211.518
47.00000 198.992
47.04000 193.326
47.08000 191.387
47.12000 205.515
47.16000 197.902
47.20000 189.823
47.24000 184.904
47.28000 192.415
47.32000 197.576
47.36000 203.688
47.40000 183.341
47.44000 184.722
47.48000 194.514
47.52000 177.822
47.56000 172.249
47.60000 180.472
47.64000 187.023
47.68000 192.094
47.72000 189.914
47.76000 187.229
47.80000 190.018
47.84000 188.260
47.88000 174.061
47.92000 180.209
47.96000 189.519
48.00000 194.675
48.04000 191.134
48.08000 192.770
48.12000 175.351
48.16000 170.552
48.20000 179.809
48.24000 187.550
48.28000 181.343
48.32000 182.731
48.36000 187.402
48.40000 169.274
48.44000 177.807
48.48000 177.085
48.52000 181.472
48.56000 189.792
48.60000 182.462
48.64000 179.391
48.68000 174.046
48.72000 181.105
48.76000 183.994
48.80000 182.757
48.84000 175.144
48.88000 182.216
48.92000 169.416
48.96000 184.370
49.00000 177.776
49.04000 169.458
49.08000 190.798
49.12000 187.390
49.16000 181.909
49.20000 177.891
49.24000 182.364
49.28000 177.487
49.32000 181.675
49.36000 184.797
49.40000 175.697
49.44000 179.939
49.48000 177.826
49.52000 168.203
49.56000 173.540
49.60000 173.407
49.64000 181.543
49.68000 181.788
49.72000 178.562
49.76000 179.494
49.80000 176.385
49.84000 169.088
49.88000 175.354
49.92000 181.555
49.96000 183.110
50.00000 169.687
50.04000 170.199
50.08000 177.564
50.12000 177.928
50.16000 178.798
50.20000 178.494
50.24000 187.179
50.28000 174.257
50.32000 182.268
50.36000 186.889
50.40000 185.559
50.44000 189.873
50.48000 190.961
50.52000 191.811
50.56000 208.658
50.60000 207.680
50.64000 229.119
50.68000 217.774
50.72000 250.841
50.76000 240.494
50.80000 255.980
50.84000 254.152
50.88000 248.948
50.92000 215.723
50.96000 237.364
51.00000 217.297
51.04000 216.702
51.08000 197.010
51.12000 192.052
51.16000 182.066
51.20000 188.368
51.24000 196.908
51.28000 172.378
51.32000 193.219
51.36000 180.842
51.40000 157.601
51.44000 158.176
51.48000 177.973
51.52000 168.748
51.56000 166.594
51.60000 166.318
51.64000 159.757
51.68000 172.506
51.72000 166.333
51.76000 158.911
51.80000 162.381
51.84000 178.230
51.88000 156.907
51.92000 165.789
51.96000 148.484
52.00000 158.847
52.04000 158.679
52.08000 167.314
52.12000 168.421
52.16000 164.388
52.20000 163.140
52.24000 161.041
52.28000 156.127
52.32000 163.692
52.36000 167.022
52.40000 159.317
52.44000 159.043
52.48000 147.641
52.52000 162.695
52.56000 168.431
52.60000 159.374
52.64000 159.066
52.68000 163.973
52.72000 161.743
52.76000 165.897
52.80000 152.530
52.84000 149.609
52.88000 160.917
52.92000 159.054
52.96000 152.691
53.00000 150.153
53.04000 153.083
53.08000 161.000
53.12000 156.480
53.16000 154.325
53.20000 149.744
53.24000 159.377
53.28000 153.297
53.32000 154.280
53.36000 155.961
53.40000 160.944
53.44000 159.539
53.48000 163.212
53.52000 171.585
53.56000 159.388
53.60000 159.626
53.64000 174.852
53.68000 163.622
53.72000 154.066
53.76000 159.508
53.80000 154.729
53.84000 154.716
53.88000 154.288
53.92000 165.883
53.96000 161.646
54.00000 148.303
54.04000 151.799
54.08000 152.610
54.12000 159.817
54.16000 159.990
54.20000 158.390
54.24000 150.749
54.28000 157.156
54.32000 151.790
54.36000 165.898
54.40000 152.781
54.44000 146.849
54.48000 147.419
54.52000 141.870
54.56000 153.281
54.60000 141.936
54.64000 153.668
54.68000 153.087
54.72000 152.474
54.76000 150.637
54.80000 149.226
54.84000 151.023
54.88000 149.657
54.92000 144.159
54.96000 152.562
55.00000 160.337
55.04000 168.743
55.08000 149.384
55.12000 162.113
55.16000 157.962
55.20000 160.387
55.24000 158.706
55.28000 156.924
55.32000 158.613
55.36000 163.212
55.40000 182.761
55.44000 168.933
55.48000 178.206
55.52000 192.034
55.56000 183.650
55.60000 194.881
55.64000 201.879
55.68000 213.538
55.72000 231.955
55.76000 258.446
55.80000 311.149
55.84000 350.081
55.88000 391.611
55.92000 447.895
55.96000 499.449
56.00000 530.493
56.04000 551.092
56.08000 549.136
56.12000 518.278
56.16000 497.320
56.20000 434.468
56.24000 386.712
56.28000 357.439
56.32000 317.098
56.36000 288.838
56.40000 255.494
56.44000 232.710
56.48000 213.809
56.52000 200.688
56.56000 184.278
56.60000 186.937
56.64000 192.160
56.68000 163.307
56.72000 162.785
56.76000 153.538
56.80000 163.304
56.84000 155.897
56.88000 158.917
56.92000 157.400
56.96000 149.388
57.00000 153.454
57.04000 148.385
57.08000 157.911
57.12000 147.215
57.16000 145.136
57.20000 147.149
57.24000 140.582
57.28000 143.775
57.32000 154.154
57.36000 148.931
57.40000 140.123
57.44000 142.572
57.48000 142.280
57.52000 144.816
57.56000 151.825
57.60000 145.932
57.64000 140.117
57.68000 140.778
57.72000 143.927
57.76000 143.577
57.80000 153.054
57.84000 140.144
57.88000 144.807
57.92000 142.654
57.96000 142.004
58.00000 141.568
58.04000 139.267
58.08000 144.427
58.12000 136.638
58.16000 137.359
58.20000 134.709
58.24000 129.972
58.28000 135.301
58.32000 136.068
58.36000 136.483
58.40000 142.443
58.44000 121.674
58.48000 134.070
58.52000 142.905
58.56000 136.311
58.60000 139.448
58.64000 138.278
58.68000 143.128
58.72000 140.199
58.76000 126.955
58.80000 131.900
58.84000 143.021
58.88000 137.118
58.92000 138.899
58.96000 127.929
59.00000 137.482
59.04000 129.185
59.08000 132.820
59.12000 128.488
59.16000 131.657
59.20000 143.943
59.24000 138.389
59.28000 134.582
59.32000 142.379
59.36000 126.214
59.40000 137.404
59.44000 139.896
59.48000 138.462
59.52000 138.616
59.56000 137.893
59.60000 129.306
59.64000 138.647
59.68000 133.132
59.72000 151.272
59.76000 149.404
59.80000 125.861
59.84000 138.139
59.88000 132.668
59.92000 135.534
59.96000 135.174
60.00000 130.793
60.04000 131.677
60.08000 124.310
60.12000 126.305
60.16000 130.434
60.20000 134.550
60.24000 134.025
60.28000 135.591
60.32000 119.925
60.36000 123.147
60.40000 132.493
60.44000 137.338
60.48000 134.133
60.52000 140.330
60.56000 137.106
60.60000 131.131
60.64000 132.317
60.68000 123.415
60.72000 132.738
60.76000 133.665
60.80000 139.161
60.84000 127.815
60.88000 128.962
60.92000 129.687
60.96000 138.560
61.00000 139.580
61.04000 134.057
61.08000 133.977
61.12000 134.471
61.16000 138.531
61.20000 139.262
61.24000 129.447
61.28000 131.291
61.32000 144.697
61.36000 135.598
61.40000 131.403
61.44000 140.121
61.48000 142.448
61.52000 147.395
61.56000 177.593
61.60000 222.078
61.64000 255.734
61.68000 277.944
61.72000 293.560
61.76000 267.337
61.80000 252.947
61.84000 194.231
61.88000 144.346
61.92000 155.677
61.96000 150.938
62.00000 144.581
62.04000 141.816
62.08000 146.243
62.12000 139.251
62.16000 137.701
62.20000 137.814
62.24000 135.503
62.28000 145.766
62.32000 143.471
62.36000 143.677
62.40000 149.672
62.44000 145.200
62.48000 138.935
62.52000 147.398
62.56000 146.737
62.60000 137.279
62.64000 146.667
62.68000 143.193
62.72000 135.297
62.76000 135.331
62.80000 143.607
62.84000 144.358
62.88000 137.555
62.92000 146.104
62.96000 143.510
63.00000 144.000
63.04000 139.120
63.08000 156.317
63.12000 146.512
63.16000 146.972
63.20000 144.031
63.24000 150.646
63.28000 148.949
63.32000 142.743
63.36000 138.713
63.40000 138.491
63.44000 139.168
63.48000 147.319
63.52000 140.430
63.56000 151.258
63.60000 146.959
63.64000 132.679
63.68000 155.517
63.72000 154.501
63.76000 148.674
63.80000 150.514
63.84000 153.363
63.88000 146.975
63.92000 149.922
63.96000 152.637
64.00000 164.358
64.04000 160.060
64.08000 160.991
64.12000 151.498
64.16000 162.898
64.20000 157.898
64.24000 164.584
64.28000 158.623
64.32000 155.234
64.36000 163.733
64.40000 164.011
64.44000 153.787
64.48000 155.159
64.52000 168.772
64.56000 166.350
64.60000 172.756
64.64000 170.346
64.68000 171.977
64.72000 172.164
64.76000 167.589
64.80000 167.308
64.84000 184.563
64.88000 178.953
64.92000 187.600
64.96000 187.456
65.00000 190.315
65.04000 191.407
65.08000 199.520
65.12000 195.164
65.16000 201.080
65.20000 210.416
65.24000 204.878
65.28000 218.450
65.32000 237.292
65.36000 250.849
65.40000 244.660
65.44000 272.272
65.48000 289.167
65.52000 310.165
65.56000 339.562
65.60000 359.987
65.64000 383.439
65.68000 434.902
65.72000 537.123
65.76000 704.727
65.80000 920.535
65.84000 1034.041
65.88000 1061.766
65.92000 1065.960
65.96000 979.269
66.00000 764.894
66.04000 526.849
66.08000 396.398
66.12000 352.729
66.16000 316.857
66.20000 314.167
66.24000 321.518
66.28000 341.053
66.32000 371.859
66.36000 409.251
66.40000 437.460
66.44000 435.627
66.48000 428.450
66.52000 431.304
66.56000 376.184
66.60000 350.322
66.64000 327.219
66.68000 322.100
66.72000 321.252
66.76000 310.481
66.80000 316.694
66.84000 315.039
66.88000 339.313
66.92000 337.338
66.96000 331.424
67.00000 342.829
67.04000 345.137
67.08000 337.186
67.12000 365.080
67.16000 365.484
67.20000 383.637
67.24000 377.606
67.28000 393.851
67.32000 375.240
67.36000 387.447
67.40000 402.847
67.44000 416.013
67.48000 419.094
67.52000 405.960
67.56000 416.149
67.60000 434.800
67.64000 444.375
67.68000 458.382
67.72000 438.792
67.76000 453.268
67.80000 477.496
67.84000 491.854
67.88000 492.466
67.92000 504.430
67.96000 512.517
68.00000 533.432
68.04000 544.073
68.08000 531.850
68.12000 581.537
68.16000 562.636
68.20000 581.683
68.24000 620.643
68.28000 618.960
68.32000 644.659
68.36000 647.422
68.40000 679.010
68.44000 690.605
68.48000 742.494
68.52000 765.909
68.56000 842.681
68.60000 924.784
68.64000 1064.312
68.68000 1234.200
68.72000 1485.356
68.76000 1677.032
68.80000 1901.501
68.84000 2168.262
68.88000 2640.419
68.92000 3957.991
68.96000 8647.573
69.00000 21755.764
69.04000 40728.457
69.08000 54059.844
69.12000 57365.176
69.16000 59519.945
69.20000 61229.035
69.24000 55620.480
69.28000 42678.359
69.32000 33820.867
69.36000 29947.551
69.40000 26319.535
69.44000 18378.688
69.48000 9122.665
69.52000 4056.767
69.56000 2276.341
69.60000 1665.369
69.64000 1362.048
69.68000 1185.657
69.72000 1051.787
69.76000 968.015
69.80000 865.041
69.84000 829.116
69.88000 784.889
69.92000 751.807
69.96000 677.839
70.00000 673.680