File: XRD/22-09-2025 Dep 2/XY Data/BTO_Mapping_Theta2Theta_22-09-2025_001_23_-4-450_19-499.xy
20.00000 564.460
20.04000 575.742
20.08000 556.090
20.12000 566.795
20.16000 571.635
20.20000 589.800
20.24000 570.684
20.28000 565.064
20.32000 569.533
20.36000 577.046
20.40000 561.553
20.44000 563.143
20.48000 565.498
20.52000 574.356
20.56000 561.582
20.60000 571.491
20.64000 561.664
20.68000 566.681
20.72000 561.761
20.76000 556.578
20.80000 574.854
20.84000 549.571
20.88000 550.864
20.92000 543.955
20.96000 574.579
21.00000 557.458
21.04000 547.198
21.08000 562.767
21.12000 561.455
21.16000 554.617
21.20000 566.349
21.24000 580.394
21.28000 548.157
21.32000 569.048
21.36000 546.776
21.40000 541.939
21.44000 566.246
21.48000 555.644
21.52000 547.875
21.56000 564.989
21.60000 561.055
21.64000 583.783
21.68000 601.119
21.72000 611.247
21.76000 623.847
21.80000 644.843
21.84000 672.958
21.88000 681.862
21.92000 738.781
21.96000 784.512
22.00000 822.603
22.04000 855.052
22.08000 860.215
22.12000 848.263
22.16000 814.811
22.20000 730.369
22.24000 723.797
22.28000 668.185
22.32000 657.692
22.36000 635.455
22.40000 604.836
22.44000 585.979
22.48000 552.738
22.52000 571.414
22.56000 569.118
22.60000 545.849
22.64000 519.860
22.68000 531.528
22.72000 544.058
22.76000 535.376
22.80000 550.456
22.84000 538.164
22.88000 530.205
22.92000 538.184
22.96000 529.314
23.00000 529.004
23.04000 522.509
23.08000 506.805
23.12000 525.188
23.16000 484.312
23.20000 507.531
23.24000 518.073
23.28000 512.521
23.32000 518.490
23.36000 514.780
23.40000 501.735
23.44000 487.068
23.48000 515.211
23.52000 513.472
23.56000 507.357
23.60000 505.538
23.64000 494.280
23.68000 500.131
23.72000 496.746
23.76000 487.056
23.80000 491.172
23.84000 493.610
23.88000 526.780
23.92000 503.959
23.96000 514.022
24.00000 491.679
24.04000 497.339
24.08000 501.730
24.12000 494.471
24.16000 481.716
24.20000 502.189
24.24000 495.618
24.28000 498.834
24.32000 507.212
24.36000 491.219
24.40000 485.193
24.44000 489.668
24.48000 485.956
24.52000 490.429
24.56000 503.105
24.60000 468.257
24.64000 486.710
24.68000 500.008
24.72000 482.715
24.76000 479.745
24.80000 468.259
24.84000 486.932
24.88000 485.941
24.92000 476.328
24.96000 482.615
25.00000 476.710
25.04000 479.403
25.08000 465.069
25.12000 467.750
25.16000 487.107
25.20000 472.555
25.24000 471.006
25.28000 482.555
25.32000 472.664
25.36000 479.979
25.40000 472.645
25.44000 470.040
25.48000 477.690
25.52000 468.503
25.56000 482.884
25.60000 487.166
25.64000 452.813
25.68000 480.303
25.72000 459.552
25.76000 486.590
25.80000 466.951
25.84000 471.520
25.88000 463.204
25.92000 473.455
25.96000 451.799
26.00000 456.064
26.04000 458.525
26.08000 456.448
26.12000 454.914
26.16000 467.430
26.20000 448.302
26.24000 447.057
26.28000 450.693
26.32000 449.591
26.36000 468.147
26.40000 443.915
26.44000 457.223
26.48000 447.652
26.52000 445.540
26.56000 468.554
26.60000 450.910
26.64000 449.539
26.68000 471.732
26.72000 450.274
26.76000 452.905
26.80000 442.479
26.84000 458.934
26.88000 437.858
26.92000 443.574
26.96000 468.874
27.00000 439.422
27.04000 450.825
27.08000 438.333
27.12000 426.275
27.16000 457.462
27.20000 439.245
27.24000 435.665
27.28000 446.136
27.32000 431.494
27.36000 443.346
27.40000 442.272
27.44000 454.540
27.48000 431.035
27.52000 454.527
27.56000 444.945
27.60000 438.489
27.64000 450.234
27.68000 439.184
27.72000 432.740
27.76000 426.708
27.80000 425.541
27.84000 418.718
27.88000 437.486
27.92000 446.169
27.96000 436.453
28.00000 446.866
28.04000 429.319
28.08000 437.281
28.12000 433.625
28.16000 420.220
28.20000 430.319
28.24000 425.062
28.28000 436.272
28.32000 423.820
28.36000 431.377
28.40000 435.337
28.44000 421.868
28.48000 426.887
28.52000 440.624
28.56000 434.612
28.60000 434.929
28.64000 423.663
28.68000 435.096
28.72000 443.958
28.76000 448.648
28.80000 430.088
28.84000 435.244
28.88000 455.238
28.92000 431.422
28.96000 427.975
29.00000 424.577
29.04000 421.750
29.08000 421.042
29.12000 421.370
29.16000 426.342
29.20000 411.859
29.24000 429.596
29.28000 411.394
29.32000 427.816
29.36000 429.397
29.40000 432.797
29.44000 419.572
29.48000 420.205
29.52000 428.368
29.56000 411.328
29.60000 417.424
29.64000 427.534
29.68000 420.683
29.72000 424.551
29.76000 426.583
29.80000 431.407
29.84000 437.352
29.88000 442.668
29.92000 430.460
29.96000 440.830
30.00000 453.823
30.04000 458.817
30.08000 461.000
30.12000 453.750
30.16000 464.486
30.20000 457.058
30.24000 440.670
30.28000 446.570
30.32000 443.909
30.36000 444.622
30.40000 434.553
30.44000 443.667
30.48000 429.136
30.52000 435.916
30.56000 451.390
30.60000 439.743
30.64000 456.775
30.68000 453.486
30.72000 467.841
30.76000 460.175
30.80000 479.539
30.84000 509.887
30.88000 502.066
30.92000 546.072
30.96000 586.200
31.00000 623.996
31.04000 716.908
31.08000 840.560
31.12000 1004.377
31.16000 1238.545
31.20000 1617.208
31.24000 2084.134
31.28000 2540.519
31.32000 3042.776
31.36000 3329.604
31.40000 3482.688
31.44000 3295.245
31.48000 2944.332
31.52000 2555.078
31.56000 2061.985
31.60000 1672.819
31.64000 1317.757
31.68000 1077.870
31.72000 855.739
31.76000 747.129
31.80000 666.630
31.84000 577.485
31.88000 564.171
31.92000 520.459
31.96000 481.221
32.00000 460.640
32.04000 451.708
32.08000 433.934
32.12000 414.178
32.16000 418.173
32.20000 420.329
32.24000 434.317
32.28000 412.722
32.32000 393.778
32.36000 412.770
32.40000 405.612
32.44000 400.508
32.48000 401.770
32.52000 383.814
32.56000 392.326
32.60000 397.011
32.64000 394.199
32.68000 408.674
32.72000 406.411
32.76000 391.222
32.80000 394.836
32.84000 392.634
32.88000 410.320
32.92000 421.354
32.96000 418.086
33.00000 410.615
33.04000 393.616
33.08000 382.777
33.12000 374.470
33.16000 361.562
33.20000 366.282
33.24000 345.048
33.28000 357.964
33.32000 344.500
33.36000 348.331
33.40000 358.163
33.44000 364.091
33.48000 354.003
33.52000 344.271
33.56000 354.948
33.60000 345.782
33.64000 335.848
33.68000 344.842
33.72000 350.719
33.76000 339.864
33.80000 351.285
33.84000 343.394
33.88000 327.555
33.92000 336.478
33.96000 347.537
34.00000 344.690
34.04000 339.347
34.08000 330.397
34.12000 335.873
34.16000 322.862
34.20000 347.471
34.24000 341.748
34.28000 327.253
34.32000 312.208
34.36000 329.077
34.40000 321.402
34.44000 336.029
34.48000 339.938
34.52000 328.961
34.56000 353.960
34.60000 340.043
34.64000 318.315
34.68000 329.958
34.72000 321.791
34.76000 323.043
34.80000 323.239
34.84000 349.311
34.88000 324.070
34.92000 334.655
34.96000 310.316
35.00000 327.365
35.04000 333.969
35.08000 311.762
35.12000 315.409
35.16000 337.142
35.20000 318.228
35.24000 303.558
35.28000 317.126
35.32000 331.185
35.36000 321.795
35.40000 308.745
35.44000 309.038
35.48000 316.724
35.52000 315.583
35.56000 309.787
35.60000 312.212
35.64000 308.296
35.68000 305.455
35.72000 314.635
35.76000 299.164
35.80000 321.384
35.84000 306.765
35.88000 315.136
35.92000 304.875
35.96000 299.510
36.00000 300.030
36.04000 316.546
36.08000 291.061
36.12000 306.798
36.16000 297.490
36.20000 295.056
36.24000 300.385
36.28000 306.159
36.32000 294.604
36.36000 301.730
36.40000 308.038
36.44000 294.690
36.48000 305.980
36.52000 311.125
36.56000 307.232
36.60000 302.258
36.64000 310.678
36.68000 311.085
36.72000 304.356
36.76000 300.857
36.80000 300.761
36.84000 300.732
36.88000 305.486
36.92000 301.703
36.96000 315.204
37.00000 298.157
37.04000 306.045
37.08000 299.069
37.12000 302.418
37.16000 312.425
37.20000 305.366
37.24000 315.170
37.28000 298.162
37.32000 304.698
37.36000 300.110
37.40000 295.391
37.44000 293.041
37.48000 295.461
37.52000 285.924
37.56000 292.107
37.60000 289.049
37.64000 283.920
37.68000 296.009
37.72000 294.204
37.76000 263.832
37.80000 296.024
37.84000 288.374
37.88000 287.970
37.92000 297.484
37.96000 311.550
38.00000 305.061
38.04000 313.262
38.08000 307.324
38.12000 301.769
38.16000 319.281
38.20000 326.007
38.24000 320.375
38.28000 340.467
38.32000 343.296
38.36000 363.245
38.40000 402.640
38.44000 440.562
38.48000 480.355
38.52000 578.929
38.56000 664.288
38.60000 778.262
38.64000 866.242
38.68000 935.782
38.72000 977.225
38.76000 941.850
38.80000 865.919
38.84000 740.347
38.88000 660.832
38.92000 561.946
38.96000 478.284
39.00000 411.435
39.04000 385.318
39.08000 358.047
39.12000 325.609
39.16000 327.237
39.20000 323.365
39.24000 316.096
39.28000 302.047
39.32000 310.473
39.36000 289.466
39.40000 295.810
39.44000 264.780
39.48000 283.280
39.52000 290.579
39.56000 285.616
39.60000 280.271
39.64000 273.039
39.68000 269.583
39.72000 275.855
39.76000 282.009
39.80000 281.028
39.84000 266.481
39.88000 275.835
39.92000 270.872
39.96000 278.020
40.00000 263.415
40.04000 274.515
40.08000 278.132
40.12000 268.269
40.16000 254.789
40.20000 263.578
40.24000 259.783
40.28000 255.194
40.32000 259.678
40.36000 272.683
40.40000 269.678
40.44000 256.269
40.48000 268.242
40.52000 259.856
40.56000 246.576
40.60000 250.938
40.64000 247.701
40.68000 265.316
40.72000 265.204
40.76000 253.766
40.80000 247.557
40.84000 252.398
40.88000 251.616
40.92000 257.498
40.96000 258.724
41.00000 252.413
41.04000 248.819
41.08000 247.979
41.12000 244.507
41.16000 240.082
41.20000 249.752
41.24000 241.779
41.28000 267.160
41.32000 252.366
41.36000 254.489
41.40000 249.350
41.44000 261.611
41.48000 249.340
41.52000 249.612
41.56000 243.875
41.60000 239.487
41.64000 239.621
41.68000 250.208
41.72000 248.341
41.76000 249.868
41.80000 247.795
41.84000 246.412
41.88000 244.672
41.92000 244.304
41.96000 235.876
42.00000 247.100
42.04000 238.507
42.08000 250.668
42.12000 255.292
42.16000 235.867
42.20000 228.286
42.24000 237.999
42.28000 238.914
42.32000 230.985
42.36000 242.704
42.40000 241.136
42.44000 235.410
42.48000 237.719
42.52000 237.811
42.56000 247.953
42.60000 241.349
42.64000 243.089
42.68000 231.932
42.72000 231.619
42.76000 241.310
42.80000 228.073
42.84000 233.724
42.88000 242.366
42.92000 239.508
42.96000 245.911
43.00000 239.748
43.04000 236.774
43.08000 225.057
43.12000 237.275
43.16000 235.468
43.20000 240.940
43.24000 234.479
43.28000 238.837
43.32000 226.029
43.36000 228.712
43.40000 241.556
43.44000 233.508
43.48000 230.091
43.52000 235.233
43.56000 227.069
43.60000 222.658
43.64000 235.364
43.68000 243.423
43.72000 227.426
43.76000 221.246
43.80000 219.378
43.84000 232.787
43.88000 229.483
43.92000 228.726
43.96000 236.572
44.00000 225.883
44.04000 230.553
44.08000 240.436
44.12000 235.562
44.16000 249.395
44.20000 231.163
44.24000 233.589
44.28000 231.513
44.32000 233.016
44.36000 245.482
44.40000 232.427
44.44000 229.780
44.48000 239.683
44.52000 253.691
44.56000 259.022
44.60000 262.382
44.64000 251.902
44.68000 268.313
44.72000 292.295
44.76000 303.994
44.80000 309.411
44.84000 348.902
44.88000 365.361
44.92000 381.538
44.96000 424.193
45.00000 423.806
45.04000 456.681
45.08000 448.705
45.12000 461.839
45.16000 438.400
45.20000 418.729
45.24000 412.557
45.28000 385.865
45.32000 354.284
45.36000 346.373
45.40000 336.473
45.44000 314.332
45.48000 305.638
45.52000 290.578
45.56000 281.422
45.60000 269.838
45.64000 256.869
45.68000 260.956
45.72000 258.109
45.76000 240.841
45.80000 235.657
45.84000 238.510
45.88000 232.340
45.92000 226.268
45.96000 221.147
46.00000 236.886
46.04000 210.303
46.08000 209.050
46.12000 211.789
46.16000 216.651
46.20000 209.553
46.24000 209.809
46.28000 219.826
46.32000 206.362
46.36000 194.707
46.40000 202.180
46.44000 206.140
46.48000 210.408
46.52000 193.702
46.56000 206.782
46.60000 198.568
46.64000 193.949
46.68000 215.292
46.72000 208.122
46.76000 198.871
46.80000 206.872
46.84000 182.347
46.88000 200.983
46.92000 216.619
46.96000 186.840
47.00000 207.727
47.04000 176.625
47.08000 195.804
47.12000 185.717
47.16000 197.402
47.20000 204.355
47.24000 192.348
47.28000 196.203
47.32000 190.056
47.36000 201.998
47.40000 197.089
47.44000 195.359
47.48000 199.437
47.52000 204.581
47.56000 183.390
47.60000 192.931
47.64000 190.890
47.68000 195.157
47.72000 194.537
47.76000 193.347
47.80000 191.217
47.84000 196.032
47.88000 177.085
47.92000 190.839
47.96000 196.870
48.00000 192.511
48.04000 177.878
48.08000 181.544
48.12000 187.367
48.16000 176.465
48.20000 189.879
48.24000 183.121
48.28000 183.439
48.32000 180.788
48.36000 188.387
48.40000 177.934
48.44000 179.065
48.48000 188.667
48.52000 198.924
48.56000 191.458
48.60000 184.723
48.64000 190.181
48.68000 179.890
48.72000 182.842
48.76000 172.868
48.80000 183.143
48.84000 193.201
48.88000 181.742
48.92000 181.632
48.96000 185.930
49.00000 169.276
49.04000 188.462
49.08000 183.030
49.12000 183.898
49.16000 176.312
49.20000 182.848
49.24000 175.070
49.28000 182.651
49.32000 177.646
49.36000 174.503
49.40000 182.157
49.44000 175.002
49.48000 177.921
49.52000 176.621
49.56000 183.611
49.60000 183.151
49.64000 184.548
49.68000 186.162
49.72000 178.878
49.76000 189.229
49.80000 178.722
49.84000 182.089
49.88000 178.274
49.92000 182.383
49.96000 178.803
50.00000 184.554
50.04000 193.354
50.08000 181.190
50.12000 177.783
50.16000 177.297
50.20000 191.009
50.24000 183.264
50.28000 189.151
50.32000 183.421
50.36000 180.501
50.40000 184.975
50.44000 198.052
50.48000 200.114
50.52000 218.838
50.56000 225.863
50.60000 227.517
50.64000 251.077
50.68000 272.137
50.72000 262.616
50.76000 269.914
50.80000 269.302
50.84000 252.812
50.88000 247.186
50.92000 234.502
50.96000 226.646
51.00000 234.899
51.04000 222.840
51.08000 202.497
51.12000 198.178
51.16000 187.488
51.20000 199.727
51.24000 188.798
51.28000 198.883
51.32000 185.009
51.36000 184.254
51.40000 174.944
51.44000 163.169
51.48000 175.428
51.52000 175.741
51.56000 176.371
51.60000 168.917
51.64000 165.996
51.68000 161.649
51.72000 162.133
51.76000 171.116
51.80000 171.576
51.84000 163.177
51.88000 166.298
51.92000 170.343
51.96000 161.856
52.00000 174.513
52.04000 164.721
52.08000 174.566
52.12000 177.198
52.16000 167.452
52.20000 156.458
52.24000 171.474
52.28000 169.142
52.32000 163.050
52.36000 157.745
52.40000 158.535
52.44000 164.455
52.48000 149.360
52.52000 156.733
52.56000 160.243
52.60000 153.669
52.64000 161.232
52.68000 167.614
52.72000 161.534
52.76000 156.496
52.80000 163.729
52.84000 156.766
52.88000 149.917
52.92000 156.835
52.96000 157.438
53.00000 144.770
53.04000 157.898
53.08000 147.352
53.12000 152.131
53.16000 161.729
53.20000 153.750
53.24000 164.159
53.28000 171.453
53.32000 155.085
53.36000 165.621
53.40000 154.563
53.44000 166.394
53.48000 160.265
53.52000 160.960
53.56000 149.777
53.60000 158.012
53.64000 159.589
53.68000 160.805
53.72000 151.164
53.76000 166.129
53.80000 164.287
53.84000 164.538
53.88000 159.300
53.92000 165.035
53.96000 169.179
54.00000 166.834
54.04000 157.928
54.08000 164.308
54.12000 164.355
54.16000 154.562
54.20000 162.748
54.24000 161.645
54.28000 156.413
54.32000 156.820
54.36000 145.223
54.40000 162.455
54.44000 158.445
54.48000 154.550
54.52000 159.913
54.56000 162.422
54.60000 159.702
54.64000 156.171
54.68000 157.897
54.72000 160.454
54.76000 157.088
54.80000 167.805
54.84000 159.518
54.88000 158.951
54.92000 163.430
54.96000 178.326
55.00000 161.465
55.04000 154.691
55.08000 166.077
55.12000 160.484
55.16000 171.660
55.20000 162.018
55.24000 174.120
55.28000 176.844
55.32000 175.643
55.36000 178.251
55.40000 191.268
55.44000 187.427
55.48000 197.967
55.52000 216.417
55.56000 222.382
55.60000 249.504
55.64000 264.628
55.68000 298.479
55.72000 322.891
55.76000 387.808
55.80000 443.614
55.84000 488.134
55.88000 531.692
55.92000 577.145
55.96000 573.544
56.00000 571.251
56.04000 552.645
56.08000 501.162
56.12000 463.704
56.16000 418.556
56.20000 392.104
56.24000 333.539
56.28000 303.835
56.32000 260.628
56.36000 254.654
56.40000 234.107
56.44000 220.383
56.48000 223.069
56.52000 206.633
56.56000 193.303
56.60000 185.393
56.64000 183.824
56.68000 166.330
56.72000 172.355
56.76000 171.315
56.80000 162.210
56.84000 164.929
56.88000 155.491
56.92000 165.092
56.96000 143.617
57.00000 158.195
57.04000 137.283
57.08000 154.544
57.12000 150.976
57.16000 143.932
57.20000 152.470
57.24000 144.139
57.28000 152.899
57.32000 150.038
57.36000 137.895
57.40000 150.098
57.44000 149.978
57.48000 149.808
57.52000 160.617
57.56000 151.149
57.60000 147.382
57.64000 147.155
57.68000 145.732
57.72000 140.943
57.76000 155.569
57.80000 141.222
57.84000 147.744
57.88000 146.775
57.92000 140.218
57.96000 153.201
58.00000 141.043
58.04000 144.452
58.08000 148.774
58.12000 139.751
58.16000 131.826
58.20000 146.958
58.24000 134.855
58.28000 139.698
58.32000 142.626
58.36000 140.324
58.40000 127.993
58.44000 129.210
58.48000 149.524
58.52000 140.907
58.56000 137.460
58.60000 148.547
58.64000 138.380
58.68000 146.211
58.72000 138.184
58.76000 139.822
58.80000 132.732
58.84000 131.405
58.88000 146.114
58.92000 129.049
58.96000 129.008
59.00000 141.965
59.04000 136.426
59.08000 138.439
59.12000 135.943
59.16000 133.445
59.20000 138.721
59.24000 146.819
59.28000 131.843
59.32000 131.791
59.36000 121.587
59.40000 132.080
59.44000 129.413
59.48000 140.168
59.52000 129.761
59.56000 140.445
59.60000 147.010
59.64000 131.792
59.68000 144.082
59.72000 139.481
59.76000 142.746
59.80000 144.117
59.84000 135.682
59.88000 129.870
59.92000 129.502
59.96000 135.520
60.00000 134.924
60.04000 145.630
60.08000 135.241
60.12000 136.816
60.16000 131.053
60.20000 138.462
60.24000 131.322
60.28000 131.683
60.32000 130.622
60.36000 128.930
60.40000 137.545
60.44000 136.346
60.48000 133.746
60.52000 125.109
60.56000 138.508
60.60000 134.673
60.64000 139.915
60.68000 129.955
60.72000 122.609
60.76000 124.959
60.80000 135.617
60.84000 136.788
60.88000 132.023
60.92000 140.878
60.96000 120.261
61.00000 136.530
61.04000 128.519
61.08000 132.612
61.12000 139.288
61.16000 139.542
61.20000 139.917
61.24000 150.841
61.28000 130.150
61.32000 149.457
61.36000 143.092
61.40000 137.644
61.44000 141.137
61.48000 156.719
61.52000 191.625
61.56000 242.271
61.60000 288.034
61.64000 325.454
61.68000 340.878
61.72000 343.342
61.76000 328.865
61.80000 260.187
61.84000 193.849
61.88000 168.950
61.92000 149.230
61.96000 150.859
62.00000 150.643
62.04000 144.207
62.08000 138.194
62.12000 138.758
62.16000 140.197
62.20000 138.044
62.24000 142.132
62.28000 141.059
62.32000 134.120
62.36000 136.261
62.40000 147.056
62.44000 141.491
62.48000 135.421
62.52000 139.499
62.56000 145.727
62.60000 142.887
62.64000 142.934
62.68000 143.214
62.72000 145.320
62.76000 147.162
62.80000 146.886
62.84000 148.904
62.88000 149.897
62.92000 151.664
62.96000 151.234
63.00000 145.220
63.04000 145.519
63.08000 149.035
63.12000 158.558
63.16000 149.287
63.20000 147.637
63.24000 152.169
63.28000 150.094
63.32000 152.918
63.36000 142.092
63.40000 143.224
63.44000 144.844
63.48000 153.703
63.52000 147.448
63.56000 169.679
63.60000 153.579
63.64000 151.187
63.68000 150.087
63.72000 150.700
63.76000 159.612
63.80000 155.812
63.84000 153.318
63.88000 164.605
63.92000 161.867
63.96000 158.844
64.00000 154.759
64.04000 150.249
64.08000 156.673
64.12000 157.971
64.16000 155.438
64.20000 161.538
64.24000 166.142
64.28000 168.479
64.32000 158.366
64.36000 163.377
64.40000 170.527
64.44000 166.745
64.48000 181.862
64.52000 176.994
64.56000 175.363
64.60000 185.601
64.64000 183.121
64.68000 162.997
64.72000 176.953
64.76000 179.126
64.80000 194.209
64.84000 190.182
64.88000 191.259
64.92000 202.922
64.96000 206.164
65.00000 208.418
65.04000 206.163
65.08000 223.298
65.12000 211.577
65.16000 224.304
65.20000 255.332
65.24000 260.392
65.28000 266.323
65.32000 278.756
65.36000 303.257
65.40000 325.281
65.44000 358.645
65.48000 399.236
65.52000 398.032
65.56000 436.611
65.60000 475.355
65.64000 534.752
65.68000 641.424
65.72000 834.969
65.76000 1111.691
65.80000 1340.113
65.84000 1451.710
65.88000 1454.302
65.92000 1404.557
65.96000 1204.833
66.00000 828.359
66.04000 561.413
66.08000 432.012
66.12000 384.537
66.16000 364.070
66.20000 361.997
66.24000 368.717
66.28000 404.729
66.32000 461.759
66.36000 516.934
66.40000 525.340
66.44000 546.116
66.48000 532.929
66.52000 503.646
66.56000 420.357
66.60000 380.947
66.64000 368.573
66.68000 335.832
66.72000 353.226
66.76000 359.964
66.80000 358.031
66.84000 373.949
66.88000 364.668
66.92000 378.477
66.96000 379.636
67.00000 403.870
67.04000 392.916
67.08000 403.075
67.12000 392.317
67.16000 417.576
67.20000 442.276
67.24000 412.294
67.28000 419.823
67.32000 432.107
67.36000 444.551
67.40000 449.715
67.44000 449.552
67.48000 481.827
67.52000 494.831
67.56000 468.069
67.60000 485.948
67.64000 503.368
67.68000 514.611
67.72000 533.448
67.76000 541.272
67.80000 543.252
67.84000 558.290
67.88000 565.739
67.92000 593.270
67.96000 602.198
68.00000 602.130
68.04000 634.457
68.08000 640.291
68.12000 647.033
68.16000 667.406
68.20000 662.358
68.24000 703.390
68.28000 737.358
68.32000 740.159
68.36000 798.321
68.40000 815.771
68.44000 859.299
68.48000 889.179
68.52000 954.726
68.56000 1066.039
68.60000 1229.800
68.64000 1464.002
68.68000 1742.452
68.72000 2061.816
68.76000 2410.111
68.80000 2840.689
68.84000 3534.863
68.88000 5014.175
68.92000 9332.784
68.96000 21602.578
69.00000 45419.254
69.04000 69014.844
69.08000 80798.297
69.12000 83879.031
69.16000 87256.602
69.20000 85734.695
69.24000 70642.156
69.28000 54653.680
69.32000 45302.207
69.36000 40364.266
69.40000 32365.955
69.44000 19329.000
69.48000 9098.491
69.52000 4201.245
69.56000 2563.766
69.60000 1899.531
69.64000 1573.079
69.68000 1383.595
69.72000 1221.558
69.76000 1092.449
69.80000 1005.462
69.84000 940.630
69.88000 914.524
69.92000 861.783
69.96000 816.441
70.00000 773.179