File: XRD/22-09-2025 Dep 2/XY Data/BTO_Mapping_Theta2Theta_22-09-2025_001_14_18-705_23-455.xy
20.00000 567.019
20.04000 576.264
20.08000 581.385
20.12000 584.047
20.16000 577.498
20.20000 547.855
20.24000 571.781
20.28000 579.711
20.32000 566.811
20.36000 563.491
20.40000 536.431
20.44000 554.920
20.48000 555.911
20.52000 542.070
20.56000 561.556
20.60000 557.029
20.64000 567.993
20.68000 563.240
20.72000 554.826
20.76000 569.227
20.80000 557.632
20.84000 540.235
20.88000 570.018
20.92000 564.971
20.96000 574.988
21.00000 554.260
21.04000 568.850
21.08000 570.319
21.12000 544.474
21.16000 545.003
21.20000 557.813
21.24000 553.844
21.28000 534.160
21.32000 549.449
21.36000 542.631
21.40000 554.943
21.44000 539.230
21.48000 552.354
21.52000 545.283
21.56000 588.344
21.60000 540.736
21.64000 558.762
21.68000 581.750
21.72000 567.824
21.76000 564.160
21.80000 567.641
21.84000 582.115
21.88000 648.308
21.92000 622.604
21.96000 701.212
22.00000 704.313
22.04000 722.889
22.08000 732.265
22.12000 740.070
22.16000 723.609
22.20000 685.375
22.24000 683.694
22.28000 666.641
22.32000 655.046
22.36000 631.026
22.40000 622.608
22.44000 587.772
22.48000 555.035
22.52000 564.600
22.56000 559.816
22.60000 560.738
22.64000 545.908
22.68000 547.662
22.72000 526.252
22.76000 531.902
22.80000 507.069
22.84000 514.878
22.88000 513.177
22.92000 532.796
22.96000 527.436
23.00000 522.871
23.04000 514.862
23.08000 531.566
23.12000 540.000
23.16000 491.204
23.20000 507.677
23.24000 514.177
23.28000 514.480
23.32000 519.052
23.36000 518.222
23.40000 499.484
23.44000 491.570
23.48000 523.030
23.52000 499.749
23.56000 520.062
23.60000 511.375
23.64000 500.649
23.68000 514.551
23.72000 518.749
23.76000 504.502
23.80000 526.896
23.84000 529.452
23.88000 518.914
23.92000 527.054
23.96000 532.722
24.00000 534.635
24.04000 525.007
24.08000 514.362
24.12000 515.856
24.16000 524.264
24.20000 514.460
24.24000 518.738
24.28000 506.510
24.32000 494.605
24.36000 493.920
24.40000 498.534
24.44000 480.005
24.48000 488.613
24.52000 488.250
24.56000 482.915
24.60000 474.233
24.64000 477.861
24.68000 486.780
24.72000 474.033
24.76000 486.436
24.80000 477.583
24.84000 465.998
24.88000 472.749
24.92000 475.545
24.96000 484.111
25.00000 471.900
25.04000 474.160
25.08000 481.376
25.12000 463.140
25.16000 477.546
25.20000 491.717
25.24000 473.629
25.28000 477.193
25.32000 470.879
25.36000 465.055
25.40000 477.626
25.44000 488.575
25.48000 464.651
25.52000 471.672
25.56000 486.642
25.60000 466.716
25.64000 485.432
25.68000 448.777
25.72000 462.083
25.76000 463.737
25.80000 464.923
25.84000 440.078
25.88000 461.944
25.92000 463.479
25.96000 489.748
26.00000 459.661
26.04000 452.749
26.08000 448.892
26.12000 461.706
26.16000 455.851
26.20000 454.097
26.24000 466.764
26.28000 444.227
26.32000 459.466
26.36000 435.654
26.40000 440.748
26.44000 452.893
26.48000 450.323
26.52000 445.293
26.56000 460.540
26.60000 452.132
26.64000 440.092
26.68000 445.892
26.72000 447.952
26.76000 450.872
26.80000 447.896
26.84000 437.461
26.88000 427.521
26.92000 444.109
26.96000 445.153
27.00000 441.305
27.04000 445.227
27.08000 430.594
27.12000 452.999
27.16000 436.119
27.20000 441.346
27.24000 436.851
27.28000 436.803
27.32000 427.839
27.36000 434.105
27.40000 429.381
27.44000 425.257
27.48000 444.235
27.52000 438.763
27.56000 442.622
27.60000 426.740
27.64000 424.605
27.68000 447.616
27.72000 425.904
27.76000 421.920
27.80000 420.822
27.84000 433.868
27.88000 441.635
27.92000 443.443
27.96000 427.596
28.00000 426.599
28.04000 412.689
28.08000 432.158
28.12000 418.622
28.16000 431.096
28.20000 440.003
28.24000 425.653
28.28000 426.785
28.32000 422.883
28.36000 431.213
28.40000 422.057
28.44000 406.835
28.48000 432.040
28.52000 414.629
28.56000 420.709
28.60000 407.627
28.64000 411.013
28.68000 427.884
28.72000 420.949
28.76000 403.189
28.80000 409.377
28.84000 417.000
28.88000 409.017
28.92000 426.561
28.96000 409.418
29.00000 409.364
29.04000 422.893
29.08000 411.581
29.12000 415.953
29.16000 420.208
29.20000 409.670
29.24000 428.980
29.28000 426.845
29.32000 411.163
29.36000 404.469
29.40000 402.599
29.44000 415.224
29.48000 415.869
29.52000 410.135
29.56000 395.332
29.60000 418.601
29.64000 422.464
29.68000 411.942
29.72000 416.321
29.76000 429.482
29.80000 430.943
29.84000 405.773
29.88000 431.256
29.92000 419.352
29.96000 447.904
30.00000 426.065
30.04000 434.888
30.08000 459.770
30.12000 424.366
30.16000 439.359
30.20000 427.637
30.24000 441.684
30.28000 432.878
30.32000 417.110
30.36000 415.457
30.40000 428.651
30.44000 446.538
30.48000 431.050
30.52000 441.862
30.56000 438.281
30.60000 437.577
30.64000 439.333
30.68000 447.355
30.72000 445.768
30.76000 455.397
30.80000 473.917
30.84000 463.413
30.88000 488.520
30.92000 516.945
30.96000 515.268
31.00000 556.956
31.04000 616.980
31.08000 708.287
31.12000 814.040
31.16000 978.871
31.20000 1242.622
31.24000 1611.903
31.28000 1996.745
31.32000 2417.989
31.36000 2731.663
31.40000 2872.806
31.44000 2796.221
31.48000 2597.012
31.52000 2267.705
31.56000 1889.542
31.60000 1509.878
31.64000 1200.677
31.68000 948.798
31.72000 779.357
31.76000 704.348
31.80000 630.674
31.84000 547.130
31.88000 538.161
31.92000 500.063
31.96000 464.750
32.00000 449.222
32.04000 438.995
32.08000 422.008
32.12000 421.881
32.16000 420.051
32.20000 419.247
32.24000 397.727
32.28000 402.235
32.32000 420.797
32.36000 384.069
32.40000 393.876
32.44000 394.309
32.48000 395.147
32.52000 391.434
32.56000 390.370
32.60000 381.834
32.64000 393.927
32.68000 380.465
32.72000 384.234
32.76000 369.335
32.80000 374.165
32.84000 374.415
32.88000 408.956
32.92000 396.427
32.96000 380.515
33.00000 377.547
33.04000 373.364
33.08000 371.956
33.12000 357.894
33.16000 344.998
33.20000 340.597
33.24000 349.947
33.28000 337.126
33.32000 342.605
33.36000 355.687
33.40000 347.190
33.44000 361.516
33.48000 355.011
33.52000 345.758
33.56000 330.425
33.60000 346.507
33.64000 346.625
33.68000 348.278
33.72000 337.411
33.76000 334.285
33.80000 348.140
33.84000 334.407
33.88000 331.512
33.92000 329.913
33.96000 332.746
34.00000 342.336
34.04000 331.668
34.08000 339.643
34.12000 348.804
34.16000 346.069
34.20000 341.800
34.24000 343.976
34.28000 342.944
34.32000 346.831
34.36000 331.939
34.40000 335.984
34.44000 341.506
34.48000 332.639
34.52000 335.703
34.56000 318.038
34.60000 319.139
34.64000 331.817
34.68000 332.792
34.72000 311.134
34.76000 335.646
34.80000 319.437
34.84000 325.539
34.88000 331.296
34.92000 321.778
34.96000 317.573
35.00000 324.971
35.04000 324.561
35.08000 311.461
35.12000 309.851
35.16000 324.116
35.20000 317.370
35.24000 305.754
35.28000 329.682
35.32000 313.923
35.36000 315.183
35.40000 302.199
35.44000 306.814
35.48000 311.253
35.52000 304.830
35.56000 299.296
35.60000 317.948
35.64000 299.439
35.68000 285.044
35.72000 314.631
35.76000 304.541
35.80000 297.115
35.84000 303.145
35.88000 294.040
35.92000 309.770
35.96000 310.399
36.00000 294.722
36.04000 314.981
36.08000 288.562
36.12000 296.167
36.16000 295.535
36.20000 275.101
36.24000 296.189
36.28000 300.682
36.32000 290.517
36.36000 288.199
36.40000 302.360
36.44000 295.325
36.48000 301.536
36.52000 289.047
36.56000 310.771
36.60000 296.629
36.64000 287.295
36.68000 291.097
36.72000 291.479
36.76000 293.919
36.80000 293.631
36.84000 287.078
36.88000 310.289
36.92000 299.649
36.96000 308.291
37.00000 294.005
37.04000 308.437
37.08000 289.723
37.12000 296.643
37.16000 300.845
37.20000 298.954
37.24000 302.522
37.28000 297.778
37.32000 304.553
37.36000 297.319
37.40000 291.354
37.44000 295.016
37.48000 300.627
37.52000 281.277
37.56000 294.948
37.60000 303.740
37.64000 292.527
37.68000 288.238
37.72000 302.148
37.76000 273.856
37.80000 293.593
37.84000 290.177
37.88000 288.153
37.92000 298.330
37.96000 299.200
38.00000 307.129
38.04000 285.247
38.08000 286.417
38.12000 310.542
38.16000 304.885
38.20000 304.123
38.24000 309.765
38.28000 326.399
38.32000 329.066
38.36000 344.930
38.40000 366.133
38.44000 384.189
38.48000 426.744
38.52000 480.942
38.56000 603.158
38.60000 659.840
38.64000 842.969
38.68000 972.643
38.72000 1048.491
38.76000 1056.141
38.80000 1036.198
38.84000 961.823
38.88000 814.161
38.92000 666.512
38.96000 559.222
39.00000 485.233
39.04000 405.788
39.08000 366.704
39.12000 348.174
39.16000 312.001
39.20000 308.629
39.24000 313.200
39.28000 304.328
39.32000 281.766
39.36000 294.899
39.40000 291.572
39.44000 277.216
39.48000 277.562
39.52000 274.814
39.56000 274.263
39.60000 283.725
39.64000 278.411
39.68000 266.896
39.72000 267.053
39.76000 245.592
39.80000 259.677
39.84000 275.398
39.88000 259.144
39.92000 268.095
39.96000 256.109
40.00000 267.029
40.04000 266.896
40.08000 253.545
40.12000 259.278
40.16000 258.823
40.20000 257.655
40.24000 257.649
40.28000 265.210
40.32000 270.775
40.36000 270.599
40.40000 263.186
40.44000 253.069
40.48000 265.483
40.52000 257.057
40.56000 252.590
40.60000 252.984
40.64000 249.691
40.68000 251.996
40.72000 247.490
40.76000 236.805
40.80000 251.856
40.84000 250.728
40.88000 249.578
40.92000 261.462
40.96000 242.191
41.00000 256.381
41.04000 240.765
41.08000 246.944
41.12000 239.089
41.16000 252.262
41.20000 245.265
41.24000 231.063
41.28000 233.280
41.32000 246.538
41.36000 240.958
41.40000 228.024
41.44000 248.876
41.48000 232.121
41.52000 240.460
41.56000 241.238
41.60000 250.001
41.64000 239.685
41.68000 235.943
41.72000 248.630
41.76000 242.861
41.80000 235.079
41.84000 248.168
41.88000 231.419
41.92000 238.478
41.96000 227.359
42.00000 237.348
42.04000 238.523
42.08000 238.148
42.12000 241.821
42.16000 245.086
42.20000 233.507
42.24000 230.494
42.28000 243.303
42.32000 239.067
42.36000 228.174
42.40000 238.551
42.44000 239.555
42.48000 249.966
42.52000 245.403
42.56000 227.161
42.60000 230.000
42.64000 230.781
42.68000 220.446
42.72000 226.769
42.76000 233.558
42.80000 232.610
42.84000 227.255
42.88000 217.473
42.92000 222.833
42.96000 225.205
43.00000 239.396
43.04000 240.633
43.08000 227.669
43.12000 237.291
43.16000 225.626
43.20000 220.326
43.24000 228.211
43.28000 245.528
43.32000 220.342
43.36000 221.784
43.40000 227.963
43.44000 220.782
43.48000 220.958
43.52000 230.913
43.56000 220.739
43.60000 230.803
43.64000 221.983
43.68000 216.129
43.72000 235.922
43.76000 222.954
43.80000 216.533
43.84000 219.816
43.88000 213.746
43.92000 212.931
43.96000 226.738
44.00000 237.324
44.04000 226.251
44.08000 230.344
44.12000 233.280
44.16000 235.357
44.20000 215.155
44.24000 210.568
44.28000 207.289
44.32000 240.767
44.36000 221.740
44.40000 224.863
44.44000 220.198
44.48000 238.423
44.52000 224.432
44.56000 232.787
44.60000 240.896
44.64000 246.072
44.68000 240.816
44.72000 248.121
44.76000 233.341
44.80000 257.588
44.84000 276.438
44.88000 278.750
44.92000 287.325
44.96000 313.573
45.00000 308.271
45.04000 336.319
45.08000 339.420
45.12000 356.685
45.16000 334.394
45.20000 350.659
45.24000 352.383
45.28000 347.283
45.32000 336.420
45.36000 335.617
45.40000 308.897
45.44000 303.355
45.48000 274.905
45.52000 287.083
45.56000 281.240
45.60000 267.098
45.64000 257.141
45.68000 267.240
45.72000 257.087
45.76000 244.758
45.80000 250.033
45.84000 234.451
45.88000 239.342
45.92000 230.308
45.96000 226.003
46.00000 213.548
46.04000 207.301
46.08000 216.311
46.12000 213.937
46.16000 208.858
46.20000 197.468
46.24000 204.557
46.28000 216.618
46.32000 205.140
46.36000 204.888
46.40000 207.641
46.44000 219.610
46.48000 208.584
46.52000 204.345
46.56000 217.521
46.60000 217.953
46.64000 192.072
46.68000 209.437
46.72000 199.098
46.76000 202.638
46.80000 211.170
46.84000 220.549
46.88000 206.282
46.92000 192.555
46.96000 200.479
47.00000 192.357
47.04000 195.464
47.08000 194.405
47.12000 181.167
47.16000 181.189
47.20000 202.637
47.24000 206.628
47.28000 181.134
47.32000 190.044
47.36000 187.697
47.40000 193.247
47.44000 188.107
47.48000 191.760
47.52000 195.766
47.56000 194.212
47.60000 189.633
47.64000 186.202
47.68000 188.916
47.72000 182.928
47.76000 190.778
47.80000 183.129
47.84000 187.129
47.88000 189.413
47.92000 184.282
47.96000 193.115
48.00000 192.993
48.04000 185.515
48.08000 182.317
48.12000 182.899
48.16000 181.770
48.20000 185.787
48.24000 189.920
48.28000 179.410
48.32000 185.417
48.36000 187.204
48.40000 187.059
48.44000 194.040
48.48000 187.584
48.52000 172.050
48.56000 185.757
48.60000 189.169
48.64000 187.814
48.68000 193.767
48.72000 180.357
48.76000 186.241
48.80000 190.598
48.84000 177.689
48.88000 171.686
48.92000 185.179
48.96000 172.051
49.00000 182.309
49.04000 177.143
49.08000 175.689
49.12000 176.601
49.16000 183.002
49.20000 173.913
49.24000 182.723
49.28000 181.943
49.32000 174.800
49.36000 176.555
49.40000 179.068
49.44000 179.025
49.48000 164.032
49.52000 175.455
49.56000 189.113
49.60000 170.318
49.64000 164.691
49.68000 173.714
49.72000 175.350
49.76000 180.811
49.80000 181.441
49.84000 176.221
49.88000 164.655
49.92000 167.432
49.96000 170.857
50.00000 179.466
50.04000 174.982
50.08000 179.696
50.12000 184.827
50.16000 177.722
50.20000 183.907
50.24000 182.161
50.28000 183.251
50.32000 180.549
50.36000 175.385
50.40000 175.041
50.44000 186.449
50.48000 201.082
50.52000 200.795
50.56000 209.193
50.60000 227.661
50.64000 237.860
50.68000 233.431
50.72000 239.191
50.76000 258.529
50.80000 259.784
50.84000 253.534
50.88000 242.169
50.92000 220.063
50.96000 210.095
51.00000 222.037
51.04000 187.789
51.08000 198.815
51.12000 191.181
51.16000 192.649
51.20000 197.032
51.24000 179.688
51.28000 176.440
51.32000 171.999
51.36000 168.788
51.40000 183.558
51.44000 163.131
51.48000 170.631
51.52000 171.241
51.56000 158.605
51.60000 174.631
51.64000 180.434
51.68000 164.899
51.72000 161.838
51.76000 162.168
51.80000 164.528
51.84000 158.568
51.88000 152.976
51.92000 170.099
51.96000 168.203
52.00000 156.494
52.04000 165.325
52.08000 169.416
52.12000 162.741
52.16000 159.955
52.20000 162.401
52.24000 156.789
52.28000 164.964
52.32000 174.807
52.36000 157.999
52.40000 155.040
52.44000 160.411
52.48000 158.861
52.52000 157.994
52.56000 161.601
52.60000 160.585
52.64000 153.433
52.68000 150.753
52.72000 153.860
52.76000 158.418
52.80000 167.610
52.84000 162.057
52.88000 171.837
52.92000 169.063
52.96000 167.641
53.00000 160.949
53.04000 152.569
53.08000 155.550
53.12000 156.776
53.16000 161.394
53.20000 158.841
53.24000 162.854
53.28000 162.024
53.32000 147.570
53.36000 168.061
53.40000 151.909
53.44000 153.471
53.48000 162.779
53.52000 150.532
53.56000 159.548
53.60000 152.015
53.64000 162.083
53.68000 155.954
53.72000 146.185
53.76000 156.078
53.80000 154.678
53.84000 157.521
53.88000 151.885
53.92000 153.807
53.96000 147.664
54.00000 161.437
54.04000 147.150
54.08000 151.160
54.12000 153.016
54.16000 149.488
54.20000 154.683
54.24000 146.044
54.28000 146.355
54.32000 155.619
54.36000 156.536
54.40000 157.440
54.44000 149.953
54.48000 152.192
54.52000 154.363
54.56000 162.504
54.60000 161.681
54.64000 157.540
54.68000 143.193
54.72000 153.979
54.76000 159.722
54.80000 149.208
54.84000 160.397
54.88000 155.874
54.92000 147.697
54.96000 156.958
55.00000 156.421
55.04000 153.048
55.08000 160.022
55.12000 172.433
55.16000 160.625
55.20000 165.844
55.24000 160.556
55.28000 171.697
55.32000 158.265
55.36000 155.885
55.40000 183.840
55.44000 184.706
55.48000 178.214
55.52000 190.491
55.56000 194.555
55.60000 220.871
55.64000 217.647
55.68000 246.436
55.72000 251.445
55.76000 301.467
55.80000 347.894
55.84000 388.687
55.88000 421.834
55.92000 475.252
55.96000 512.747
56.00000 524.503
56.04000 511.919
56.08000 513.419
56.12000 463.805
56.16000 431.527
56.20000 388.036
56.24000 343.472
56.28000 307.204
56.32000 265.497
56.36000 238.615
56.40000 224.550
56.44000 211.076
56.48000 208.364
56.52000 195.138
56.56000 185.860
56.60000 178.888
56.64000 181.328
56.68000 175.428
56.72000 159.951
56.76000 157.781
56.80000 160.997
56.84000 159.087
56.88000 156.108
56.92000 151.786
56.96000 156.593
57.00000 141.691
57.04000 150.011
57.08000 143.697
57.12000 139.358
57.16000 150.676
57.20000 153.074
57.24000 147.555
57.28000 145.322
57.32000 144.625
57.36000 148.284
57.40000 140.232
57.44000 146.355
57.48000 142.204
57.52000 149.730
57.56000 134.800
57.60000 148.418
57.64000 139.271
57.68000 141.714
57.72000 146.472
57.76000 144.252
57.80000 128.332
57.84000 143.316
57.88000 148.867
57.92000 132.342
57.96000 133.789
58.00000 137.661
58.04000 129.057
58.08000 136.867
58.12000 140.421
58.16000 143.078
58.20000 136.483
58.24000 141.169
58.28000 137.700
58.32000 138.403
58.36000 145.578
58.40000 140.342
58.44000 146.417
58.48000 138.365
58.52000 138.228
58.56000 139.690
58.60000 139.267
58.64000 137.745
58.68000 144.841
58.72000 126.873
58.76000 138.162
58.80000 133.130
58.84000 128.283
58.88000 143.326
58.92000 131.599
58.96000 123.705
59.00000 138.584
59.04000 137.057
59.08000 142.938
59.12000 126.034
59.16000 138.328
59.20000 135.702
59.24000 132.254
59.28000 136.903
59.32000 136.603
59.36000 133.977
59.40000 137.111
59.44000 139.848
59.48000 131.876
59.52000 126.058
59.56000 132.021
59.60000 122.690
59.64000 138.757
59.68000 129.541
59.72000 125.368
59.76000 127.932
59.80000 136.958
59.84000 131.695
59.88000 140.772
59.92000 141.156
59.96000 132.586
60.00000 127.746
60.04000 136.535
60.08000 134.177
60.12000 136.681
60.16000 130.676
60.20000 131.828
60.24000 139.466
60.28000 132.916
60.32000 133.967
60.36000 135.950
60.40000 132.946
60.44000 129.504
60.48000 131.302
60.52000 134.005
60.56000 139.999
60.60000 130.031
60.64000 135.479
60.68000 138.847
60.72000 134.654
60.76000 126.459
60.80000 132.038
60.84000 139.207
60.88000 136.916
60.92000 145.902
60.96000 125.309
61.00000 131.860
61.04000 136.515
61.08000 136.645
61.12000 130.075
61.16000 136.871
61.20000 131.592
61.24000 128.763
61.28000 141.751
61.32000 142.611
61.36000 133.259
61.40000 136.822
61.44000 142.738
61.48000 156.451
61.52000 166.090
61.56000 201.109
61.60000 245.994
61.64000 269.835
61.68000 281.367
61.72000 290.787
61.76000 267.793
61.80000 224.520
61.84000 170.409
61.88000 151.879
61.92000 144.586
61.96000 131.514
62.00000 146.660
62.04000 141.022
62.08000 147.285
62.12000 141.332
62.16000 149.093
62.20000 137.835
62.24000 141.768
62.28000 137.681
62.32000 138.221
62.36000 140.678
62.40000 146.088
62.44000 139.779
62.48000 154.158
62.52000 139.830
62.56000 146.064
62.60000 144.905
62.64000 132.718
62.68000 143.564
62.72000 147.469
62.76000 143.548
62.80000 140.424
62.84000 141.637
62.88000 137.274
62.92000 150.669
62.96000 138.186
63.00000 139.046
63.04000 148.018
63.08000 152.280
63.12000 157.030
63.16000 144.183
63.20000 150.932
63.24000 146.836
63.28000 147.259
63.32000 149.220
63.36000 143.222
63.40000 145.594
63.44000 143.640
63.48000 150.500
63.52000 151.336
63.56000 148.568
63.60000 153.300
63.64000 150.851
63.68000 151.064
63.72000 153.269
63.76000 139.799
63.80000 148.766
63.84000 155.153
63.88000 163.507
63.92000 159.470
63.96000 161.764
64.00000 152.181
64.04000 151.376
64.08000 164.910
64.12000 151.039
64.16000 171.223
64.20000 155.691
64.24000 163.528
64.28000 156.139
64.32000 158.158
64.36000 157.460
64.40000 163.751
64.44000 167.341
64.48000 155.178
64.52000 160.708
64.56000 164.313
64.60000 176.497
64.64000 183.754
64.68000 169.667
64.72000 175.937
64.76000 175.626
64.80000 166.884
64.84000 174.241
64.88000 180.841
64.92000 181.107
64.96000 184.150
65.00000 174.933
65.04000 203.058
65.08000 204.866
65.12000 198.897
65.16000 218.628
65.20000 208.131
65.24000 242.426
65.28000 232.162
65.32000 230.374
65.36000 259.927
65.40000 270.806
65.44000 314.454
65.48000 324.065
65.52000 376.965
65.56000 388.108
65.60000 391.237
65.64000 444.911
65.68000 497.415
65.72000 664.939
65.76000 857.275
65.80000 1044.057
65.84000 1153.528
65.88000 1136.607
65.92000 1081.842
65.96000 942.570
66.00000 671.752
66.04000 463.450
66.08000 357.866
66.12000 345.032
66.16000 309.250
66.20000 311.466
66.24000 343.246
66.28000 365.122
66.32000 419.500
66.36000 436.764
66.40000 459.494
66.44000 457.838
66.48000 459.364
66.52000 405.025
66.56000 355.024
66.60000 343.423
66.64000 324.548
66.68000 316.237
66.72000 317.905
66.76000 318.630
66.80000 321.433
66.84000 328.197
66.88000 347.243
66.92000 330.903
66.96000 344.541
67.00000 333.451
67.04000 344.186
67.08000 359.382
67.12000 371.708
67.16000 375.901
67.20000 370.003
67.24000 388.941
67.28000 396.649
67.32000 402.079
67.36000 399.844
67.40000 385.754
67.44000 406.279
67.48000 422.069
67.52000 423.756
67.56000 443.234
67.60000 467.547
67.64000 444.419
67.68000 457.513
67.72000 473.007
67.76000 484.647
67.80000 464.080
67.84000 482.077
67.88000 510.847
67.92000 505.095
67.96000 529.257
68.00000 534.918
68.04000 536.245
68.08000 556.519
68.12000 569.375
68.16000 580.992
68.20000 591.071
68.24000 606.547
68.28000 633.449
68.32000 645.699
68.36000 702.989
68.40000 712.437
68.44000 731.349
68.48000 772.449
68.52000 804.397
68.56000 898.653
68.60000 1000.729
68.64000 1150.715
68.68000 1383.360
68.72000 1587.780
68.76000 1849.423
68.80000 2088.844
68.84000 2469.528
68.88000 3165.627
68.92000 5896.865
68.96000 14360.399
69.00000 31915.727
69.04000 50355.523
69.08000 58651.102
69.12000 60971.121
69.16000 63527.922
69.20000 62989.203
69.24000 52268.953
69.28000 39170.914
69.32000 32728.453
69.36000 29624.574
69.40000 24217.361
69.44000 14541.004
69.48000 6506.063
69.52000 3088.142
69.56000 1997.723
69.60000 1524.747
69.64000 1276.362
69.68000 1155.776
69.72000 1019.535
69.76000 915.202
69.80000 861.309
69.84000 811.803
69.88000 802.851
69.92000 719.457
69.96000 710.150
70.00000 674.041