File: XRD/22-09-2025 Dep 2/XY Data/BTO_Mapping_Theta2Theta_22-09-2025_001_20_8-901_38-997.xy
20.00000 566.872
20.04000 563.405
20.08000 559.593
20.12000 583.224
20.16000 577.086
20.20000 561.559
20.24000 568.853
20.28000 570.536
20.32000 551.260
20.36000 545.738
20.40000 552.834
20.44000 558.531
20.48000 557.213
20.52000 563.852
20.56000 556.844
20.60000 556.449
20.64000 577.345
20.68000 539.378
20.72000 536.397
20.76000 553.329
20.80000 549.337
20.84000 551.636
20.88000 561.800
20.92000 567.739
20.96000 574.875
21.00000 551.873
21.04000 561.727
21.08000 572.049
21.12000 549.829
21.16000 559.701
21.20000 557.534
21.24000 560.938
21.28000 556.643
21.32000 550.052
21.36000 567.297
21.40000 561.668
21.44000 540.790
21.48000 545.008
21.52000 543.167
21.56000 560.022
21.60000 563.901
21.64000 554.339
21.68000 582.775
21.72000 588.294
21.76000 596.134
21.80000 594.267
21.84000 614.758
21.88000 624.431
21.92000 678.503
21.96000 709.901
22.00000 722.633
22.04000 745.515
22.08000 755.928
22.12000 766.432
22.16000 755.040
22.20000 743.508
22.24000 704.250
22.28000 686.015
22.32000 647.600
22.36000 642.027
22.40000 637.270
22.44000 596.143
22.48000 594.838
22.52000 579.180
22.56000 556.031
22.60000 553.384
22.64000 532.933
22.68000 531.062
22.72000 512.584
22.76000 516.123
22.80000 533.590
22.84000 530.148
22.88000 522.612
22.92000 518.480
22.96000 516.476
23.00000 525.705
23.04000 535.311
23.08000 526.324
23.12000 521.139
23.16000 520.283
23.20000 512.502
23.24000 495.757
23.28000 522.196
23.32000 480.974
23.36000 510.276
23.40000 501.491
23.44000 498.277
23.48000 506.589
23.52000 503.318
23.56000 492.009
23.60000 486.688
23.64000 529.395
23.68000 507.124
23.72000 510.046
23.76000 497.789
23.80000 503.979
23.84000 517.565
23.88000 503.125
23.92000 524.869
23.96000 528.709
24.00000 514.047
24.04000 516.648
24.08000 505.645
24.12000 508.798
24.16000 518.402
24.20000 509.365
24.24000 498.430
24.28000 485.870
24.32000 488.628
24.36000 506.371
24.40000 484.827
24.44000 497.076
24.48000 501.859
24.52000 501.694
24.56000 480.993
24.60000 496.223
24.64000 477.078
24.68000 484.278
24.72000 486.778
24.76000 479.089
24.80000 479.350
24.84000 488.215
24.88000 484.832
24.92000 467.106
24.96000 491.036
25.00000 481.833
25.04000 476.157
25.08000 475.614
25.12000 486.398
25.16000 478.807
25.20000 477.708
25.24000 471.169
25.28000 476.967
25.32000 483.386
25.36000 462.298
25.40000 469.984
25.44000 493.583
25.48000 454.114
25.52000 471.580
25.56000 474.131
25.60000 464.728
25.64000 479.947
25.68000 455.928
25.72000 455.331
25.76000 469.945
25.80000 483.116
25.84000 466.426
25.88000 447.590
25.92000 448.508
25.96000 446.221
26.00000 449.922
26.04000 444.779
26.08000 482.674
26.12000 450.184
26.16000 460.866
26.20000 460.996
26.24000 461.629
26.28000 444.956
26.32000 441.273
26.36000 449.800
26.40000 457.037
26.44000 437.264
26.48000 452.959
26.52000 451.744
26.56000 461.713
26.60000 456.224
26.64000 453.475
26.68000 455.590
26.72000 462.635
26.76000 435.912
26.80000 435.852
26.84000 448.517
26.88000 438.875
26.92000 463.670
26.96000 429.860
27.00000 449.127
27.04000 452.253
27.08000 464.260
27.12000 457.610
27.16000 441.016
27.20000 429.261
27.24000 449.651
27.28000 435.855
27.32000 434.012
27.36000 430.516
27.40000 429.103
27.44000 428.736
27.48000 423.451
27.52000 437.924
27.56000 441.787
27.60000 435.094
27.64000 426.496
27.68000 441.275
27.72000 436.167
27.76000 451.276
27.80000 440.476
27.84000 452.315
27.88000 438.013
27.92000 434.188
27.96000 439.773
28.00000 434.390
28.04000 427.991
28.08000 440.602
28.12000 436.705
28.16000 426.128
28.20000 430.135
28.24000 449.214
28.28000 445.080
28.32000 431.754
28.36000 438.598
28.40000 432.253
28.44000 430.010
28.48000 416.935
28.52000 429.155
28.56000 403.124
28.60000 420.001
28.64000 410.912
28.68000 417.988
28.72000 425.156
28.76000 415.969
28.80000 424.099
28.84000 429.652
28.88000 404.108
28.92000 398.197
28.96000 401.301
29.00000 426.891
29.04000 415.424
29.08000 431.792
29.12000 416.707
29.16000 418.391
29.20000 388.066
29.24000 400.144
29.28000 410.716
29.32000 404.252
29.36000 402.623
29.40000 401.639
29.44000 411.294
29.48000 419.312
29.52000 407.629
29.56000 401.363
29.60000 405.270
29.64000 409.770
29.68000 408.362
29.72000 419.954
29.76000 409.549
29.80000 427.373
29.84000 408.231
29.88000 428.190
29.92000 429.534
29.96000 429.423
30.00000 447.295
30.04000 426.668
30.08000 455.836
30.12000 457.583
30.16000 458.162
30.20000 457.325
30.24000 448.460
30.28000 430.560
30.32000 440.295
30.36000 404.824
30.40000 418.006
30.44000 452.824
30.48000 416.660
30.52000 418.396
30.56000 450.209
30.60000 451.285
30.64000 461.908
30.68000 453.223
30.72000 453.159
30.76000 440.282
30.80000 449.495
30.84000 469.152
30.88000 475.913
30.92000 511.761
30.96000 541.133
31.00000 576.646
31.04000 624.472
31.08000 698.470
31.12000 849.849
31.16000 1036.394
31.20000 1292.920
31.24000 1659.290
31.28000 2137.382
31.32000 2538.723
31.36000 2861.508
31.40000 3120.631
31.44000 3092.992
31.48000 2934.265
31.52000 2535.677
31.56000 2088.531
31.60000 1682.759
31.64000 1335.237
31.68000 1074.370
31.72000 875.245
31.76000 752.942
31.80000 657.354
31.84000 594.754
31.88000 549.311
31.92000 515.430
31.96000 481.643
32.00000 466.573
32.04000 434.769
32.08000 427.661
32.12000 410.447
32.16000 412.062
32.20000 403.658
32.24000 420.087
32.28000 386.586
32.32000 401.447
32.36000 397.227
32.40000 403.726
32.44000 398.178
32.48000 392.535
32.52000 389.012
32.56000 409.052
32.60000 386.462
32.64000 383.177
32.68000 386.519
32.72000 379.113
32.76000 364.713
32.80000 385.815
32.84000 351.257
32.88000 398.960
32.92000 383.604
32.96000 378.241
33.00000 375.845
33.04000 376.384
33.08000 373.399
33.12000 354.254
33.16000 327.774
33.20000 349.528
33.24000 351.147
33.28000 353.798
33.32000 357.221
33.36000 363.006
33.40000 351.039
33.44000 340.689
33.48000 341.351
33.52000 347.647
33.56000 352.241
33.60000 338.089
33.64000 354.651
33.68000 343.170
33.72000 349.195
33.76000 355.483
33.80000 341.597
33.84000 342.266
33.88000 341.287
33.92000 332.658
33.96000 337.810
34.00000 330.889
34.04000 347.955
34.08000 347.743
34.12000 341.117
34.16000 345.872
34.20000 353.173
34.24000 325.663
34.28000 342.067
34.32000 356.452
34.36000 338.106
34.40000 337.745
34.44000 338.660
34.48000 328.243
34.52000 327.511
34.56000 333.774
34.60000 324.932
34.64000 323.974
34.68000 322.052
34.72000 338.062
34.76000 330.104
34.80000 333.153
34.84000 310.713
34.88000 330.556
34.92000 323.788
34.96000 321.691
35.00000 310.393
35.04000 325.054
35.08000 328.393
35.12000 320.905
35.16000 311.310
35.20000 324.790
35.24000 313.047
35.28000 311.768
35.32000 302.466
35.36000 319.863
35.40000 307.437
35.44000 302.087
35.48000 327.860
35.52000 307.080
35.56000 309.772
35.60000 312.467
35.64000 311.523
35.68000 314.263
35.72000 301.854
35.76000 302.610
35.80000 309.978
35.84000 311.237
35.88000 298.117
35.92000 296.501
35.96000 306.252
36.00000 301.077
36.04000 306.036
36.08000 297.671
36.12000 297.839
36.16000 295.848
36.20000 311.515
36.24000 318.384
36.28000 292.129
36.32000 309.932
36.36000 295.582
36.40000 308.347
36.44000 299.396
36.48000 301.841
36.52000 293.684
36.56000 297.492
36.60000 292.543
36.64000 293.580
36.68000 291.624
36.72000 309.306
36.76000 296.002
36.80000 287.299
36.84000 295.494
36.88000 290.407
36.92000 297.711
36.96000 301.993
37.00000 287.412
37.04000 301.279
37.08000 306.794
37.12000 309.192
37.16000 300.762
37.20000 307.730
37.24000 295.147
37.28000 292.434
37.32000 290.443
37.36000 309.853
37.40000 294.119
37.44000 288.177
37.48000 289.068
37.52000 291.290
37.56000 286.141
37.60000 294.101
37.64000 300.888
37.68000 296.562
37.72000 286.853
37.76000 300.794
37.80000 284.580
37.84000 298.594
37.88000 294.514
37.92000 301.065
37.96000 295.177
38.00000 291.902
38.04000 299.613
38.08000 295.539
38.12000 302.466
38.16000 287.939
38.20000 315.613
38.24000 315.287
38.28000 323.872
38.32000 320.445
38.36000 336.106
38.40000 347.786
38.44000 369.212
38.48000 430.549
38.52000 485.239
38.56000 575.186
38.60000 660.226
38.64000 773.632
38.68000 905.671
38.72000 985.316
38.76000 1008.816
38.80000 1028.606
38.84000 922.491
38.88000 768.242
38.92000 677.683
38.96000 561.250
39.00000 470.961
39.04000 401.381
39.08000 376.257
39.12000 331.767
39.16000 308.206
39.20000 300.569
39.24000 303.289
39.28000 291.626
39.32000 288.277
39.36000 279.060
39.40000 281.231
39.44000 282.900
39.48000 270.518
39.52000 285.648
39.56000 267.297
39.60000 270.750
39.64000 291.263
39.68000 276.749
39.72000 275.666
39.76000 261.437
39.80000 258.215
39.84000 259.998
39.88000 272.870
39.92000 259.118
39.96000 266.266
40.00000 266.831
40.04000 258.682
40.08000 259.420
40.12000 270.801
40.16000 272.715
40.20000 258.740
40.24000 254.567
40.28000 244.541
40.32000 252.802
40.36000 242.955
40.40000 251.579
40.44000 255.727
40.48000 263.388
40.52000 261.311
40.56000 258.529
40.60000 263.934
40.64000 254.111
40.68000 248.970
40.72000 247.443
40.76000 250.791
40.80000 245.862
40.84000 248.368
40.88000 252.406
40.92000 251.936
40.96000 250.403
41.00000 253.903
41.04000 241.289
41.08000 242.090
41.12000 242.711
41.16000 249.497
41.20000 246.661
41.24000 244.488
41.28000 249.169
41.32000 242.163
41.36000 247.212
41.40000 259.697
41.44000 238.034
41.48000 240.337
41.52000 242.141
41.56000 231.838
41.60000 238.670
41.64000 245.724
41.68000 226.365
41.72000 246.012
41.76000 237.836
41.80000 232.885
41.84000 224.190
41.88000 233.074
41.92000 242.317
41.96000 245.623
42.00000 246.518
42.04000 229.939
42.08000 248.415
42.12000 241.589
42.16000 234.438
42.20000 238.270
42.24000 229.520
42.28000 250.089
42.32000 233.723
42.36000 246.356
42.40000 245.514
42.44000 237.055
42.48000 236.631
42.52000 229.505
42.56000 229.689
42.60000 240.396
42.64000 234.313
42.68000 237.661
42.72000 245.309
42.76000 239.154
42.80000 231.344
42.84000 218.235
42.88000 231.839
42.92000 218.576
42.96000 225.475
43.00000 222.855
43.04000 231.158
43.08000 221.885
43.12000 223.868
43.16000 217.624
43.20000 225.285
43.24000 233.986
43.28000 240.018
43.32000 226.713
43.36000 236.347
43.40000 237.461
43.44000 212.876
43.48000 238.387
43.52000 217.585
43.56000 226.875
43.60000 225.064
43.64000 230.426
43.68000 220.972
43.72000 240.264
43.76000 217.688
43.80000 232.046
43.84000 217.052
43.88000 231.357
43.92000 235.666
43.96000 235.021
44.00000 229.416
44.04000 220.587
44.08000 223.609
44.12000 223.242
44.16000 216.238
44.20000 230.081
44.24000 233.775
44.28000 234.843
44.32000 237.445
44.36000 220.833
44.40000 220.474
44.44000 227.934
44.48000 226.812
44.52000 232.460
44.56000 242.811
44.60000 248.087
44.64000 244.844
44.68000 249.508
44.72000 255.264
44.76000 260.244
44.80000 267.195
44.84000 274.600
44.88000 277.394
44.92000 288.618
44.96000 312.709
45.00000 344.183
45.04000 361.007
45.08000 375.010
45.12000 384.403
45.16000 381.793
45.20000 373.306
45.24000 376.815
45.28000 368.473
45.32000 348.561
45.36000 338.118
45.40000 327.941
45.44000 315.364
45.48000 303.628
45.52000 301.681
45.56000 300.430
45.60000 284.512
45.64000 270.159
45.68000 260.650
45.72000 267.497
45.76000 239.637
45.80000 240.487
45.84000 239.273
45.88000 240.793
45.92000 231.878
45.96000 231.310
46.00000 222.322
46.04000 227.712
46.08000 220.585
46.12000 213.518
46.16000 214.460
46.20000 205.729
46.24000 219.315
46.28000 211.852
46.32000 196.041
46.36000 205.421
46.40000 210.126
46.44000 192.327
46.48000 206.523
46.52000 213.736
46.56000 211.153
46.60000 195.428
46.64000 196.452
46.68000 197.098
46.72000 200.641
46.76000 212.757
46.80000 194.932
46.84000 192.300
46.88000 201.811
46.92000 202.357
46.96000 186.217
47.00000 193.995
47.04000 208.816
47.08000 201.323
47.12000 185.810
47.16000 183.474
47.20000 182.484
47.24000 193.466
47.28000 181.238
47.32000 180.751
47.36000 190.266
47.40000 187.842
47.44000 183.796
47.48000 189.169
47.52000 183.116
47.56000 195.035
47.60000 173.918
47.64000 182.043
47.68000 193.134
47.72000 188.284
47.76000 187.792
47.80000 178.394
47.84000 191.387
47.88000 188.865
47.92000 185.955
47.96000 189.953
48.00000 185.582
48.04000 183.929
48.08000 197.132
48.12000 193.088
48.16000 192.165
48.20000 188.751
48.24000 177.373
48.28000 175.827
48.32000 179.643
48.36000 188.760
48.40000 183.612
48.44000 180.053
48.48000 181.958
48.52000 190.891
48.56000 197.553
48.60000 181.863
48.64000 183.124
48.68000 177.333
48.72000 178.362
48.76000 183.194
48.80000 170.646
48.84000 175.655
48.88000 183.874
48.92000 169.894
48.96000 185.448
49.00000 176.953
49.04000 169.996
49.08000 179.150
49.12000 196.548
49.16000 164.974
49.20000 172.744
49.24000 176.165
49.28000 178.182
49.32000 191.796
49.36000 163.295
49.40000 173.741
49.44000 179.624
49.48000 175.566
49.52000 180.375
49.56000 176.983
49.60000 172.885
49.64000 184.877
49.68000 172.449
49.72000 180.804
49.76000 175.420
49.80000 176.297
49.84000 179.256
49.88000 171.069
49.92000 175.035
49.96000 179.269
50.00000 178.783
50.04000 182.904
50.08000 201.682
50.12000 180.132
50.16000 178.509
50.20000 176.637
50.24000 183.128
50.28000 176.360
50.32000 173.916
50.36000 187.198
50.40000 180.865
50.44000 188.756
50.48000 193.043
50.52000 205.845
50.56000 215.644
50.60000 220.404
50.64000 242.061
50.68000 248.512
50.72000 265.951
50.76000 271.139
50.80000 266.145
50.84000 259.280
50.88000 246.446
50.92000 238.362
50.96000 228.771
51.00000 222.582
51.04000 207.262
51.08000 204.794
51.12000 205.487
51.16000 185.073
51.20000 194.241
51.24000 184.619
51.28000 180.543
51.32000 171.548
51.36000 180.495
51.40000 181.606
51.44000 172.294
51.48000 172.152
51.52000 180.107
51.56000 164.983
51.60000 169.933
51.64000 169.174
51.68000 164.373
51.72000 168.725
51.76000 165.385
51.80000 165.944
51.84000 165.843
51.88000 153.728
51.92000 158.960
51.96000 159.844
52.00000 160.563
52.04000 156.576
52.08000 168.608
52.12000 173.839
52.16000 161.151
52.20000 169.303
52.24000 153.020
52.28000 162.863
52.32000 176.607
52.36000 153.204
52.40000 153.229
52.44000 159.356
52.48000 161.044
52.52000 163.319
52.56000 155.205
52.60000 161.203
52.64000 153.432
52.68000 161.186
52.72000 162.467
52.76000 153.793
52.80000 172.983
52.84000 151.978
52.88000 156.200
52.92000 148.804
52.96000 150.608
53.00000 156.876
53.04000 156.724
53.08000 168.583
53.12000 166.350
53.16000 157.077
53.20000 158.584
53.24000 157.733
53.28000 165.119
53.32000 167.789
53.36000 164.754
53.40000 165.898
53.44000 148.834
53.48000 157.387
53.52000 167.629
53.56000 169.178
53.60000 172.138
53.64000 164.486
53.68000 150.947
53.72000 156.071
53.76000 156.037
53.80000 157.265
53.84000 159.906
53.88000 164.180
53.92000 158.548
53.96000 161.823
54.00000 156.637
54.04000 149.258
54.08000 161.361
54.12000 153.703
54.16000 154.516
54.20000 162.070
54.24000 150.109
54.28000 145.008
54.32000 163.991
54.36000 160.705
54.40000 161.074
54.44000 142.828
54.48000 152.216
54.52000 162.823
54.56000 170.180
54.60000 149.001
54.64000 151.625
54.68000 166.083
54.72000 142.139
54.76000 143.668
54.80000 152.155
54.84000 155.033
54.88000 151.269
54.92000 159.765
54.96000 167.650
55.00000 160.014
55.04000 158.101
55.08000 163.247
55.12000 164.921
55.16000 162.712
55.20000 161.527
55.24000 163.355
55.28000 177.481
55.32000 155.076
55.36000 169.290
55.40000 168.512
55.44000 171.040
55.48000 184.119
55.52000 181.333
55.56000 197.372
55.60000 207.951
55.64000 213.258
55.68000 240.044
55.72000 257.551
55.76000 287.265
55.80000 357.907
55.84000 372.146
55.88000 434.174
55.92000 473.357
55.96000 510.134
56.00000 532.496
56.04000 533.677
56.08000 500.741
56.12000 483.754
56.16000 439.357
56.20000 394.434
56.24000 371.336
56.28000 318.384
56.32000 289.450
56.36000 259.837
56.40000 246.375
56.44000 224.782
56.48000 212.670
56.52000 203.675
56.56000 195.844
56.60000 184.482
56.64000 174.690
56.68000 159.131
56.72000 172.320
56.76000 170.449
56.80000 158.312
56.84000 162.638
56.88000 150.351
56.92000 160.376
56.96000 149.217
57.00000 149.402
57.04000 147.216
57.08000 149.089
57.12000 153.505
57.16000 149.547
57.20000 140.531
57.24000 144.274
57.28000 149.565
57.32000 147.328
57.36000 154.380
57.40000 141.992
57.44000 148.702
57.48000 147.191
57.52000 145.760
57.56000 150.515
57.60000 144.471
57.64000 143.417
57.68000 144.236
57.72000 153.552
57.76000 148.234
57.80000 137.181
57.84000 141.034
57.88000 143.777
57.92000 141.996
57.96000 133.748
58.00000 140.411
58.04000 150.092
58.08000 140.781
58.12000 148.142
58.16000 146.094
58.20000 148.370
58.24000 139.758
58.28000 136.617
58.32000 131.162
58.36000 140.660
58.40000 138.670
58.44000 136.988
58.48000 140.005
58.52000 143.658
58.56000 133.434
58.60000 134.093
58.64000 131.621
58.68000 134.099
58.72000 138.692
58.76000 137.006
58.80000 130.049
58.84000 141.448
58.88000 126.333
58.92000 136.444
58.96000 140.668
59.00000 132.995
59.04000 145.140
59.08000 125.150
59.12000 138.846
59.16000 134.106
59.20000 131.762
59.24000 133.357
59.28000 134.846
59.32000 133.777
59.36000 138.011
59.40000 127.862
59.44000 131.422
59.48000 128.953
59.52000 144.250
59.56000 148.354
59.60000 121.323
59.64000 134.067
59.68000 137.684
59.72000 138.839
59.76000 136.722
59.80000 137.915
59.84000 137.851
59.88000 136.643
59.92000 121.263
59.96000 132.052
60.00000 124.659
60.04000 136.292
60.08000 138.243
60.12000 143.802
60.16000 128.677
60.20000 121.048
60.24000 137.844
60.28000 136.276
60.32000 125.553
60.36000 132.419
60.40000 139.144
60.44000 133.635
60.48000 138.963
60.52000 143.355
60.56000 129.860
60.60000 133.334
60.64000 139.677
60.68000 127.487
60.72000 133.300
60.76000 146.324
60.80000 135.607
60.84000 137.706
60.88000 131.470
60.92000 127.406
60.96000 129.515
61.00000 136.157
61.04000 142.435
61.08000 138.220
61.12000 120.845
61.16000 131.198
61.20000 132.663
61.24000 137.271
61.28000 141.267
61.32000 131.529
61.36000 135.336
61.40000 141.027
61.44000 136.580
61.48000 153.074
61.52000 171.592
61.56000 207.817
61.60000 259.665
61.64000 273.103
61.68000 281.777
61.72000 289.540
61.76000 287.220
61.80000 227.760
61.84000 182.373
61.88000 142.391
61.92000 138.813
61.96000 142.242
62.00000 153.493
62.04000 135.701
62.08000 136.577
62.12000 145.949
62.16000 144.536
62.20000 137.860
62.24000 145.332
62.28000 139.821
62.32000 141.366
62.36000 140.221
62.40000 154.545
62.44000 140.453
62.48000 135.105
62.52000 136.810
62.56000 144.959
62.60000 142.907
62.64000 145.422
62.68000 143.256
62.72000 148.480
62.76000 143.028
62.80000 137.286
62.84000 148.872
62.88000 140.272
62.92000 136.733
62.96000 151.386
63.00000 150.545
63.04000 141.866
63.08000 147.178
63.12000 139.617
63.16000 141.726
63.20000 143.804
63.24000 140.183
63.28000 150.846
63.32000 152.934
63.36000 153.298
63.40000 159.457
63.44000 146.549
63.48000 150.336
63.52000 154.331
63.56000 141.260
63.60000 136.511
63.64000 142.752
63.68000 160.285
63.72000 153.551
63.76000 161.625
63.80000 154.345
63.84000 145.906
63.88000 163.689
63.92000 153.489
63.96000 154.351
64.00000 162.968
64.04000 154.942
64.08000 163.857
64.12000 159.934
64.16000 162.845
64.20000 164.036
64.24000 168.981
64.28000 165.422
64.32000 165.734
64.36000 171.453
64.40000 167.655
64.44000 167.472
64.48000 170.095
64.52000 171.588
64.56000 161.500
64.60000 164.472
64.64000 180.184
64.68000 165.158
64.72000 171.016
64.76000 177.179
64.80000 196.677
64.84000 186.332
64.88000 196.790
64.92000 190.150
64.96000 191.005
65.00000 208.262
65.04000 181.819
65.08000 206.100
65.12000 203.896
65.16000 208.990
65.20000 230.204
65.24000 228.697
65.28000 246.358
65.32000 248.411
65.36000 258.247
65.40000 284.223
65.44000 291.119
65.48000 330.633
65.52000 365.796
65.56000 400.024
65.60000 425.699
65.64000 481.930
65.68000 524.337
65.72000 686.877
65.76000 887.968
65.80000 1099.675
65.84000 1182.719
65.88000 1233.869
65.92000 1179.044
65.96000 1021.723
66.00000 704.502
66.04000 513.943
66.08000 401.097
66.12000 357.403
66.16000 326.843
66.20000 337.924
66.24000 349.302
66.28000 375.516
66.32000 429.700
66.36000 447.216
66.40000 467.104
66.44000 461.926
66.48000 477.340
66.52000 436.310
66.56000 402.591
66.60000 348.418
66.64000 336.094
66.68000 336.579
66.72000 333.406
66.76000 329.764
66.80000 327.161
66.84000 322.346
66.88000 373.752
66.92000 355.902
66.96000 355.890
67.00000 370.149
67.04000 371.482
67.08000 373.518
67.12000 385.999
67.16000 380.934
67.20000 394.901
67.24000 397.006
67.28000 391.089
67.32000 392.618
67.36000 406.551
67.40000 413.405
67.44000 416.882
67.48000 415.033
67.52000 433.056
67.56000 430.884
67.60000 453.124
67.64000 440.025
67.68000 462.546
67.72000 490.883
67.76000 499.759
67.80000 504.620
67.84000 505.430
67.88000 501.739
67.92000 533.022
67.96000 540.139
68.00000 562.222
68.04000 579.417
68.08000 570.993
68.12000 580.377
68.16000 624.757
68.20000 607.456
68.24000 614.798
68.28000 642.525
68.32000 673.018
68.36000 692.552
68.40000 722.789
68.44000 774.196
68.48000 774.205
68.52000 865.874
68.56000 906.048
68.60000 1053.335
68.64000 1223.476
68.68000 1424.649
68.72000 1689.165
68.76000 1961.568
68.80000 2286.770
68.84000 2660.057
68.88000 3517.481
68.92000 6529.726
68.96000 15496.696
69.00000 34174.254
69.04000 53717.535
69.08000 63533.344
69.12000 66131.656
69.16000 68780.602
69.20000 67999.820
69.24000 56744.230
69.28000 43240.668
69.32000 35877.086
69.36000 32284.629
69.40000 26313.088
69.44000 15985.711
69.48000 7279.292
69.52000 3433.934
69.56000 2129.093
69.60000 1591.840
69.64000 1361.508
69.68000 1180.347
69.72000 1078.352
69.76000 973.437
69.80000 894.902
69.84000 850.586
69.88000 792.893
69.92000 739.734
69.96000 733.179
70.00000 703.038