File: XRD/22-09-2025 Dep 2/XY Data/BTO_Mapping_Theta2Theta_22-09-2025_001_06_50-000_0-000.xy
20.00000 1368.197
20.04000 1382.830
20.08000 1337.539
20.12000 1331.159
20.16000 1366.949
20.20000 1393.895
20.24000 1332.796
20.28000 1353.418
20.32000 1321.550
20.36000 1333.928
20.40000 1326.173
20.44000 1363.916
20.48000 1345.163
20.52000 1345.948
20.56000 1308.611
20.60000 1289.738
20.64000 1344.142
20.68000 1306.248
20.72000 1302.623
20.76000 1296.293
20.80000 1306.684
20.84000 1334.691
20.88000 1287.271
20.92000 1293.877
20.96000 1260.059
21.00000 1298.693
21.04000 1272.159
21.08000 1269.380
21.12000 1278.752
21.16000 1317.696
21.20000 1287.574
21.24000 1254.170
21.28000 1254.426
21.32000 1257.995
21.36000 1297.537
21.40000 1263.823
21.44000 1240.573
21.48000 1248.600
21.52000 1231.199
21.56000 1235.828
21.60000 1223.579
21.64000 1227.719
21.68000 1223.860
21.72000 1211.725
21.76000 1220.418
21.80000 1225.741
21.84000 1220.573
21.88000 1211.222
21.92000 1211.098
21.96000 1203.729
22.00000 1197.418
22.04000 1185.220
22.08000 1194.587
22.12000 1204.414
22.16000 1175.616
22.20000 1200.620
22.24000 1169.418
22.28000 1192.814
22.32000 1155.675
22.36000 1175.755
22.40000 1153.937
22.44000 1163.566
22.48000 1151.674
22.52000 1170.060
22.56000 1152.510
22.60000 1181.581
22.64000 1153.365
22.68000 1163.855
22.72000 1128.152
22.76000 1150.094
22.80000 1138.521
22.84000 1113.802
22.88000 1124.481
22.92000 1145.583
22.96000 1105.734
23.00000 1100.257
23.04000 1105.831
23.08000 1120.831
23.12000 1096.052
23.16000 1133.138
23.20000 1094.810
23.24000 1073.857
23.28000 1102.723
23.32000 1098.557
23.36000 1067.329
23.40000 1087.163
23.44000 1095.853
23.48000 1079.283
23.52000 1098.175
23.56000 1075.474
23.60000 1081.276
23.64000 1078.266
23.68000 1087.486
23.72000 1066.765
23.76000 1057.294
23.80000 1044.256
23.84000 1031.084
23.88000 1090.289
23.92000 1077.514
23.96000 1045.864
24.00000 1047.367
24.04000 1065.712
24.08000 1068.087
24.12000 1050.313
24.16000 1048.687
24.20000 1040.334
24.24000 1026.416
24.28000 1038.719
24.32000 1006.618
24.36000 1013.965
24.40000 979.211
24.44000 1016.165
24.48000 1026.207
24.52000 1024.089
24.56000 1018.657
24.60000 1025.908
24.64000 1031.024
24.68000 1019.032
24.72000 978.717
24.76000 995.993
24.80000 1003.120
24.84000 1005.898
24.88000 1006.164
24.92000 1008.075
24.96000 992.199
25.00000 986.723
25.04000 996.497
25.08000 991.470
25.12000 971.325
25.16000 984.475
25.20000 967.235
25.24000 982.755
25.28000 956.494
25.32000 953.587
25.36000 975.360
25.40000 962.111
25.44000 961.471
25.48000 980.731
25.52000 980.740
25.56000 965.397
25.60000 925.206
25.64000 955.761
25.68000 964.052
25.72000 965.584
25.76000 923.567
25.80000 933.525
25.84000 951.723
25.88000 942.001
25.92000 913.408
25.96000 944.813
26.00000 919.923
26.04000 936.275
26.08000 931.633
26.12000 913.389
26.16000 924.953
26.20000 920.065
26.24000 920.915
26.28000 935.820
26.32000 917.388
26.36000 916.304
26.40000 893.587
26.44000 878.281
26.48000 905.127
26.52000 905.992
26.56000 897.618
26.60000 890.285
26.64000 898.756
26.68000 875.973
26.72000 887.582
26.76000 903.940
26.80000 885.875
26.84000 870.025
26.88000 867.117
26.92000 879.773
26.96000 887.178
27.00000 886.665
27.04000 869.907
27.08000 874.395
27.12000 894.797
27.16000 864.107
27.20000 867.289
27.24000 866.533
27.28000 863.847
27.32000 848.517
27.36000 867.035
27.40000 842.402
27.44000 888.900
27.48000 876.873
27.52000 844.908
27.56000 843.087
27.60000 833.163
27.64000 861.435
27.68000 849.222
27.72000 841.814
27.76000 856.390
27.80000 855.756
27.84000 841.691
27.88000 826.153
27.92000 847.375
27.96000 860.680
28.00000 827.216
28.04000 796.452
28.08000 825.508
28.12000 818.131
28.16000 829.047
28.20000 811.984
28.24000 817.474
28.28000 814.899
28.32000 803.164
28.36000 823.895
28.40000 795.056
28.44000 795.707
28.48000 805.850
28.52000 791.925
28.56000 808.959
28.60000 828.565
28.64000 783.004
28.68000 808.681
28.72000 793.010
28.76000 809.404
28.80000 802.622
28.84000 798.674
28.88000 802.279
28.92000 796.015
28.96000 767.674
29.00000 788.066
29.04000 797.385
29.08000 786.324
29.12000 772.128
29.16000 783.933
29.20000 793.147
29.24000 763.473
29.28000 759.602
29.32000 764.865
29.36000 736.187
29.40000 767.092
29.44000 768.776
29.48000 751.774
29.52000 780.518
29.56000 752.125
29.60000 759.969
29.64000 765.203
29.68000 759.584
29.72000 709.248
29.76000 753.204
29.80000 757.487
29.84000 730.804
29.88000 743.041
29.92000 741.783
29.96000 723.664
30.00000 753.857
30.04000 762.454
30.08000 722.685
30.12000 738.137
30.16000 737.522
30.20000 737.545
30.24000 706.778
30.28000 700.629
30.32000 737.400
30.36000 703.672
30.40000 704.920
30.44000 753.427
30.48000 733.085
30.52000 728.150
30.56000 681.915
30.60000 692.117
30.64000 700.907
30.68000 701.645
30.72000 703.792
30.76000 718.047
30.80000 697.419
30.84000 708.933
30.88000 708.784
30.92000 678.617
30.96000 672.815
31.00000 678.167
31.04000 677.261
31.08000 703.634
31.12000 693.010
31.16000 691.094
31.20000 675.235
31.24000 688.411
31.28000 680.478
31.32000 690.011
31.36000 665.096
31.40000 684.745
31.44000 666.977
31.48000 696.904
31.52000 690.471
31.56000 682.459
31.60000 674.547
31.64000 665.262
31.68000 685.382
31.72000 666.340
31.76000 684.332
31.80000 647.259
31.84000 649.689
31.88000 668.040
31.92000 681.352
31.96000 652.132
32.00000 645.700
32.04000 654.414
32.08000 665.248
32.12000 632.815
32.16000 648.246
32.20000 650.170
32.24000 662.597
32.28000 637.560
32.32000 651.461
32.36000 640.919
32.40000 645.771
32.44000 641.605
32.48000 652.713
32.52000 627.830
32.56000 643.574
32.60000 618.548
32.64000 618.604
32.68000 646.965
32.72000 625.651
32.76000 623.196
32.80000 611.517
32.84000 618.492
32.88000 628.881
32.92000 617.094
32.96000 610.430
33.00000 614.886
33.04000 602.014
33.08000 620.410
33.12000 600.321
33.16000 607.295
33.20000 623.002
33.24000 634.981
33.28000 604.235
33.32000 603.322
33.36000 589.652
33.40000 619.262
33.44000 609.731
33.48000 595.725
33.52000 608.690
33.56000 592.725
33.60000 595.585
33.64000 588.898
33.68000 596.545
33.72000 595.066
33.76000 596.655
33.80000 582.671
33.84000 599.590
33.88000 589.770
33.92000 585.935
33.96000 580.669
34.00000 601.142
34.04000 582.565
34.08000 588.371
34.12000 613.606
34.16000 586.078
34.20000 554.431
34.24000 584.617
34.28000 580.851
34.32000 590.424
34.36000 579.162
34.40000 591.757
34.44000 572.767
34.48000 564.542
34.52000 565.820
34.56000 574.718
34.60000 571.425
34.64000 571.409
34.68000 556.797
34.72000 570.496
34.76000 554.389
34.80000 561.773
34.84000 559.532
34.88000 562.902
34.92000 543.191
34.96000 558.414
35.00000 541.486
35.04000 566.937
35.08000 545.006
35.12000 549.294
35.16000 547.941
35.20000 559.157
35.24000 564.208
35.28000 566.576
35.32000 528.232
35.36000 550.314
35.40000 557.160
35.44000 546.639
35.48000 550.455
35.52000 543.808
35.56000 541.636
35.60000 545.965
35.64000 532.193
35.68000 532.943
35.72000 543.878
35.76000 522.876
35.80000 534.346
35.84000 522.572
35.88000 526.750
35.92000 531.509
35.96000 532.101
36.00000 537.858
36.04000 532.274
36.08000 535.374
36.12000 540.779
36.16000 549.387
36.20000 523.100
36.24000 527.314
36.28000 529.662
36.32000 518.863
36.36000 538.347
36.40000 505.882
36.44000 516.800
36.48000 519.519
36.52000 511.555
36.56000 500.079
36.60000 520.063
36.64000 518.494
36.68000 514.835
36.72000 503.508
36.76000 513.946
36.80000 521.430
36.84000 520.902
36.88000 503.969
36.92000 515.601
36.96000 505.547
37.00000 503.451
37.04000 495.635
37.08000 494.518
37.12000 469.701
37.16000 506.619
37.20000 506.180
37.24000 505.570
37.28000 496.532
37.32000 486.730
37.36000 501.329
37.40000 512.384
37.44000 482.071
37.48000 503.192
37.52000 495.148
37.56000 498.084
37.60000 491.914
37.64000 493.535
37.68000 464.212
37.72000 484.831
37.76000 500.550
37.80000 487.871
37.84000 488.032
37.88000 499.084
37.92000 485.486
37.96000 490.846
38.00000 481.499
38.04000 461.559
38.08000 490.257
38.12000 481.133
38.16000 481.989
38.20000 490.141
38.24000 452.832
38.28000 489.057
38.32000 469.150
38.36000 476.854
38.40000 459.881
38.44000 458.093
38.48000 460.763
38.52000 466.345
38.56000 480.455
38.60000 470.471
38.64000 463.254
38.68000 470.522
38.72000 444.785
38.76000 472.965
38.80000 469.089
38.84000 473.523
38.88000 473.241
38.92000 457.510
38.96000 452.613
39.00000 438.546
39.04000 452.848
39.08000 465.521
39.12000 463.026
39.16000 443.507
39.20000 452.580
39.24000 438.211
39.28000 455.329
39.32000 443.485
39.36000 445.096
39.40000 451.772
39.44000 453.507
39.48000 455.501
39.52000 441.376
39.56000 459.498
39.60000 451.926
39.64000 423.733
39.68000 441.055
39.72000 436.272
39.76000 433.971
39.80000 456.284
39.84000 435.332
39.88000 437.640
39.92000 434.533
39.96000 448.803
40.00000 435.849
40.04000 436.078
40.08000 420.406
40.12000 434.201
40.16000 434.527
40.20000 423.158
40.24000 417.121
40.28000 427.955
40.32000 447.228
40.36000 430.951
40.40000 412.020
40.44000 434.881
40.48000 443.009
40.52000 442.281
40.56000 437.556
40.60000 412.220
40.64000 433.176
40.68000 425.411
40.72000 433.349
40.76000 432.433
40.80000 420.919
40.84000 425.827
40.88000 432.976
40.92000 426.074
40.96000 422.342
41.00000 414.768
41.04000 414.088
41.08000 422.655
41.12000 412.414
41.16000 415.723
41.20000 426.659
41.24000 422.285
41.28000 411.573
41.32000 421.275
41.36000 416.518
41.40000 424.498
41.44000 403.249
41.48000 410.968
41.52000 416.992
41.56000 419.250
41.60000 404.785
41.64000 399.321
41.68000 404.146
41.72000 417.759
41.76000 393.424
41.80000 405.547
41.84000 401.250
41.88000 413.459
41.92000 424.160
41.96000 412.708
42.00000 411.784
42.04000 412.052
42.08000 402.700
42.12000 406.511
42.16000 405.249
42.20000 399.047
42.24000 422.908
42.28000 393.706
42.32000 396.381
42.36000 382.125
42.40000 407.367
42.44000 399.569
42.48000 405.285
42.52000 401.661
42.56000 395.910
42.60000 396.282
42.64000 394.443
42.68000 400.482
42.72000 406.085
42.76000 368.032
42.80000 391.439
42.84000 382.805
42.88000 377.848
42.92000 399.741
42.96000 393.619
43.00000 391.038
43.04000 397.689
43.08000 404.150
43.12000 384.989
43.16000 399.779
43.20000 377.683
43.24000 390.093
43.28000 386.908
43.32000 391.850
43.36000 390.499
43.40000 380.676
43.44000 375.652
43.48000 398.050
43.52000 382.239
43.56000 393.320
43.60000 389.936
43.64000 395.436
43.68000 382.324
43.72000 385.604
43.76000 385.424
43.80000 399.134
43.84000 398.715
43.88000 401.303
43.92000 400.971
43.96000 404.242
44.00000 407.336
44.04000 412.751
44.08000 425.712
44.12000 439.519
44.16000 448.066
44.20000 443.523
44.24000 440.258
44.28000 441.968
44.32000 449.219
44.36000 424.837
44.40000 407.128
44.44000 404.035
44.48000 393.875
44.52000 398.915
44.56000 373.873
44.60000 392.539
44.64000 400.141
44.68000 376.845
44.72000 373.859
44.76000 362.579
44.80000 375.857
44.84000 375.405
44.88000 370.782
44.92000 372.268
44.96000 372.737
45.00000 380.510
45.04000 367.181
45.08000 385.420
45.12000 378.583
45.16000 389.436
45.20000 374.794
45.24000 377.724
45.28000 360.977
45.32000 374.824
45.36000 366.257
45.40000 380.698
45.44000 368.555
45.48000 355.652
45.52000 371.363
45.56000 378.554
45.60000 362.425
45.64000 363.882
45.68000 369.038
45.72000 373.503
45.76000 380.648
45.80000 354.908
45.84000 361.404
45.88000 370.263
45.92000 364.302
45.96000 364.035
46.00000 361.575
46.04000 369.331
46.08000 366.684
46.12000 362.822
46.16000 360.581
46.20000 365.682
46.24000 362.427
46.28000 355.205
46.32000 354.831
46.36000 363.735
46.40000 356.459
46.44000 372.926
46.48000 379.776
46.52000 378.996
46.56000 374.045
46.60000 374.296
46.64000 383.027
46.68000 363.252
46.72000 352.929
46.76000 369.319
46.80000 374.061
46.84000 367.490
46.88000 365.201
46.92000 356.979
46.96000 356.025
47.00000 361.420
47.04000 357.287
47.08000 370.566
47.12000 363.410
47.16000 398.324
47.20000 363.825
47.24000 372.745
47.28000 362.630
47.32000 370.863
47.36000 360.156
47.40000 357.268
47.44000 367.495
47.48000 347.418
47.52000 345.292
47.56000 344.432
47.60000 363.586
47.64000 367.366
47.68000 369.261
47.72000 360.433
47.76000 356.731
47.80000 361.488
47.84000 366.355
47.88000 351.529
47.92000 352.152
47.96000 363.723
48.00000 345.485
48.04000 360.755
48.08000 356.843
48.12000 358.863
48.16000 341.819
48.20000 363.124
48.24000 356.030
48.28000 351.178
48.32000 338.458
48.36000 360.247
48.40000 353.661
48.44000 373.448
48.48000 352.529
48.52000 347.835
48.56000 353.140
48.60000 345.495
48.64000 353.868
48.68000 370.086
48.72000 373.846
48.76000 383.326
48.80000 354.999
48.84000 363.506
48.88000 338.786
48.92000 360.051
48.96000 346.299
49.00000 361.858
49.04000 360.061
49.08000 345.563
49.12000 350.178
49.16000 354.686
49.20000 355.551
49.24000 362.074
49.28000 354.037
49.32000 362.692
49.36000 354.027
49.40000 373.825
49.44000 372.226
49.48000 356.790
49.52000 357.821
49.56000 369.138
49.60000 352.126
49.64000 365.559
49.68000 348.918
49.72000 348.792
49.76000 365.320
49.80000 354.074
49.84000 353.714
49.88000 354.698
49.92000 356.341
49.96000 373.684
50.00000 358.401
50.04000 364.050
50.08000 369.602
50.12000 348.297
50.16000 366.408
50.20000 367.818
50.24000 361.831
50.28000 366.257
50.32000 359.810
50.36000 364.688
50.40000 346.370
50.44000 374.109
50.48000 351.188
50.52000 362.199
50.56000 367.431
50.60000 360.204
50.64000 360.048
50.68000 372.320
50.72000 377.961
50.76000 365.261
50.80000 369.367
50.84000 384.447
50.88000 358.947
50.92000 373.692
50.96000 374.531
51.00000 366.207
51.04000 383.322
51.08000 348.086
51.12000 365.867
51.16000 377.882
51.20000 368.604
51.24000 379.827
51.28000 356.529
51.32000 365.952
51.36000 368.308
51.40000 365.287
51.44000 350.037
51.48000 363.535
51.52000 372.588
51.56000 367.926
51.60000 366.292
51.64000 375.619
51.68000 372.525
51.72000 367.162
51.76000 358.912
51.80000 376.448
51.84000 368.167
51.88000 371.630
51.92000 362.904
51.96000 369.239
52.00000 371.526
52.04000 373.926
52.08000 380.995
52.12000 372.582
52.16000 392.088
52.20000 355.065
52.24000 372.383
52.28000 348.061
52.32000 369.475
52.36000 383.697
52.40000 381.518
52.44000 364.183
52.48000 361.846
52.52000 379.118
52.56000 372.090
52.60000 381.865
52.64000 383.855
52.68000 381.604
52.72000 394.020
52.76000 381.671
52.80000 370.997
52.84000 383.274
52.88000 371.660
52.92000 374.943
52.96000 364.830
53.00000 379.096
53.04000 382.921
53.08000 377.919
53.12000 366.122
53.16000 362.150
53.20000 361.877
53.24000 392.935
53.28000 378.243
53.32000 384.000
53.36000 388.221
53.40000 375.646
53.44000 381.407
53.48000 368.728
53.52000 376.096
53.56000 380.509
53.60000 399.167
53.64000 365.404
53.68000 376.598
53.72000 370.515
53.76000 380.426
53.80000 391.677
53.84000 378.976
53.88000 388.387
53.92000 398.201
53.96000 377.550
54.00000 380.954
54.04000 386.714
54.08000 372.379
54.12000 384.901
54.16000 388.005
54.20000 395.890
54.24000 380.424
54.28000 363.724
54.32000 383.148
54.36000 378.426
54.40000 406.020
54.44000 401.006
54.48000 390.148
54.52000 362.992
54.56000 373.034
54.60000 382.755
54.64000 383.220
54.68000 391.563
54.72000 377.422
54.76000 406.919
54.80000 382.512
54.84000 400.237
54.88000 396.714
54.92000 395.110
54.96000 388.897
55.00000 403.979
55.04000 378.419
55.08000 380.184
55.12000 385.629
55.16000 386.130
55.20000 393.703
55.24000 393.339
55.28000 391.032
55.32000 381.818
55.36000 403.042
55.40000 400.124
55.44000 380.779
55.48000 397.507
55.52000 392.649
55.56000 400.261
55.60000 401.277
55.64000 402.072
55.68000 406.502
55.72000 414.477
55.76000 396.191
55.80000 393.769
55.84000 393.238
55.88000 416.094
55.92000 398.800
55.96000 409.437
56.00000 392.582
56.04000 412.308
56.08000 389.238
56.12000 400.521
56.16000 421.957
56.20000 401.248
56.24000 421.786
56.28000 393.709
56.32000 389.190
56.36000 410.862
56.40000 413.022
56.44000 394.518
56.48000 408.490
56.52000 417.426
56.56000 393.431
56.60000 411.159
56.64000 412.430
56.68000 413.607
56.72000 391.188
56.76000 394.733
56.80000 397.646
56.84000 414.678
56.88000 402.963
56.92000 405.485
56.96000 396.997
57.00000 409.429
57.04000 407.359
57.08000 417.024
57.12000 412.078
57.16000 437.332
57.20000 418.954
57.24000 417.671
57.28000 411.349
57.32000 410.821
57.36000 399.020
57.40000 416.216
57.44000 423.434
57.48000 414.859
57.52000 419.481
57.56000 407.584
57.60000 418.090
57.64000 416.824
57.68000 432.530
57.72000 418.355
57.76000 428.773
57.80000 418.004
57.84000 422.053
57.88000 413.115
57.92000 416.243
57.96000 426.078
58.00000 422.980
58.04000 437.826
58.08000 453.201
58.12000 403.420
58.16000 431.679
58.20000 436.211
58.24000 439.751
58.28000 433.961
58.32000 454.660
58.36000 428.506
58.40000 422.657
58.44000 445.997
58.48000 434.792
58.52000 430.324
58.56000 439.475
58.60000 447.660
58.64000 434.356
58.68000 426.736
58.72000 433.147
58.76000 453.132
58.80000 453.029
58.84000 433.275
58.88000 429.141
58.92000 430.488
58.96000 427.590
59.00000 434.699
59.04000 444.373
59.08000 449.560
59.12000 435.994
59.16000 451.325
59.20000 440.332
59.24000 448.574
59.28000 448.012
59.32000 441.974
59.36000 457.377
59.40000 452.384
59.44000 457.109
59.48000 451.884
59.52000 446.734
59.56000 440.932
59.60000 439.283
59.64000 438.240
59.68000 442.801
59.72000 441.406
59.76000 453.801
59.80000 464.647
59.84000 452.395
59.88000 450.475
59.92000 456.396
59.96000 456.086
60.00000 461.471
60.04000 466.619
60.08000 460.197
60.12000 463.746
60.16000 458.975
60.20000 470.540
60.24000 462.996
60.28000 471.094
60.32000 467.938
60.36000 475.270
60.40000 488.135
60.44000 471.392
60.48000 462.131
60.52000 462.244
60.56000 462.913
60.60000 475.094
60.64000 474.914
60.68000 471.624
60.72000 468.576
60.76000 472.041
60.80000 475.508
60.84000 470.958
60.88000 467.614
60.92000 474.943
60.96000 462.123
61.00000 470.970
61.04000 493.665
61.08000 512.889
61.12000 489.012
61.16000 457.487
61.20000 482.720
61.24000 505.427
61.28000 479.430
61.32000 503.387
61.36000 487.304
61.40000 485.436
61.44000 465.189
61.48000 469.380
61.52000 481.583
61.56000 495.135
61.60000 486.944
61.64000 465.887
61.68000 495.851
61.72000 498.874
61.76000 483.563
61.80000 504.740
61.84000 474.482
61.88000 491.878
61.92000 501.382
61.96000 512.191
62.00000 518.939
62.04000 495.273
62.08000 493.610
62.12000 482.513
62.16000 498.086
62.20000 510.488
62.24000 497.361
62.28000 514.296
62.32000 503.293
62.36000 489.381
62.40000 504.164
62.44000 518.038
62.48000 516.696
62.52000 513.438
62.56000 515.213
62.60000 522.932
62.64000 513.909
62.68000 517.504
62.72000 504.150
62.76000 515.971
62.80000 511.512
62.84000 485.540
62.88000 513.746
62.92000 519.819
62.96000 526.831
63.00000 507.541
63.04000 514.650
63.08000 526.895
63.12000 517.785
63.16000 527.719
63.20000 508.337
63.24000 528.641
63.28000 509.459
63.32000 554.637
63.36000 514.996
63.40000 511.026
63.44000 512.171
63.48000 538.201
63.52000 545.662
63.56000 529.621
63.60000 512.785
63.64000 538.128
63.68000 545.462
63.72000 548.671
63.76000 549.625
63.80000 541.374
63.84000 536.901
63.88000 538.422
63.92000 558.901
63.96000 536.481
64.00000 548.548
64.04000 551.220
64.08000 544.630
64.12000 548.593
64.16000 569.182
64.20000 569.595
64.24000 586.013
64.28000 576.284
64.32000 583.503
64.36000 607.927
64.40000 610.410
64.44000 608.334
64.48000 627.754
64.52000 618.161
64.56000 617.783
64.60000 612.719
64.64000 601.020
64.68000 603.989
64.72000 599.305
64.76000 609.693
64.80000 593.246
64.84000 563.606
64.88000 588.262
64.92000 584.605
64.96000 585.701
65.00000 579.986
65.04000 564.925
65.08000 567.147
65.12000 556.543
65.16000 578.271
65.20000 574.742
65.24000 570.577
65.28000 552.008
65.32000 578.260
65.36000 573.772
65.40000 567.076
65.44000 559.494
65.48000 575.894
65.52000 553.196
65.56000 578.396
65.60000 571.172
65.64000 570.456
65.68000 597.415
65.72000 613.239
65.76000 603.118
65.80000 621.636
65.84000 606.835
65.88000 591.021
65.92000 584.471
65.96000 562.256
66.00000 592.712
66.04000 589.070
66.08000 587.637
66.12000 575.016
66.16000 578.908
66.20000 591.643
66.24000 590.583
66.28000 612.090
66.32000 603.613
66.36000 595.380
66.40000 602.344
66.44000 569.392
66.48000 556.502
66.52000 582.317
66.56000 549.427
66.60000 616.703
66.64000 597.211
66.68000 591.392
66.72000 601.232
66.76000 598.057
66.80000 603.903
66.84000 592.536
66.88000 620.730
66.92000 617.695
66.96000 618.996
67.00000 603.744
67.04000 598.168
67.08000 599.122
67.12000 598.769
67.16000 612.904
67.20000 609.109
67.24000 611.554
67.28000 610.268
67.32000 616.105
67.36000 600.860
67.40000 615.909
67.44000 610.623
67.48000 605.731
67.52000 607.085
67.56000 627.367
67.60000 619.711
67.64000 621.614
67.68000 620.623
67.72000 630.360
67.76000 611.756
67.80000 628.072
67.84000 629.620
67.88000 636.562
67.92000 629.750
67.96000 627.235
68.00000 636.849
68.04000 648.141
68.08000 632.317
68.12000 635.690
68.16000 638.315
68.20000 631.272
68.24000 622.247
68.28000 614.762
68.32000 642.367
68.36000 665.072
68.40000 653.090
68.44000 638.307
68.48000 664.845
68.52000 660.697
68.56000 653.828
68.60000 685.594
68.64000 695.565
68.68000 680.108
68.72000 726.952
68.76000 704.484
68.80000 722.482
68.84000 780.809
68.88000 916.714
68.92000 1620.852
68.96000 3115.827
69.00000 3470.045
69.04000 3131.099
69.08000 2840.397
69.12000 3044.690
69.16000 2887.985
69.20000 2241.130
69.24000 1944.933
69.28000 1774.029
69.32000 1614.555
69.36000 1154.734
69.40000 845.184
69.44000 795.363
69.48000 744.984
69.52000 759.891
69.56000 742.793
69.60000 721.080
69.64000 749.896
69.68000 744.726
69.72000 758.272
69.76000 760.446
69.80000 759.032
69.84000 762.367
69.88000 763.352
69.92000 772.083
69.96000 759.177
70.00000 768.910