File: XRD/22-09-2025 Dep 2/XY Data/BTO_Mapping_Theta2Theta_22-09-2025_001_32_-9-010_4-339.xy
20.00000 563.782
20.04000 591.029
20.08000 580.412
20.12000 551.877
20.16000 563.136
20.20000 577.726
20.24000 577.346
20.28000 577.494
20.32000 573.308
20.36000 569.192
20.40000 577.350
20.44000 589.943
20.48000 567.531
20.52000 561.746
20.56000 556.722
20.60000 575.974
20.64000 568.964
20.68000 543.616
20.72000 555.875
20.76000 543.915
20.80000 566.562
20.84000 559.783
20.88000 567.840
20.92000 552.330
20.96000 536.950
21.00000 555.327
21.04000 569.683
21.08000 546.249
21.12000 571.804
21.16000 566.918
21.20000 551.398
21.24000 555.390
21.28000 580.551
21.32000 588.805
21.36000 572.307
21.40000 568.928
21.44000 574.975
21.48000 562.313
21.52000 561.384
21.56000 579.688
21.60000 586.195
21.64000 595.344
21.68000 604.158
21.72000 628.611
21.76000 643.120
21.80000 665.881
21.84000 692.447
21.88000 741.066
21.92000 780.553
21.96000 825.742
22.00000 845.515
22.04000 874.211
22.08000 868.735
22.12000 849.617
22.16000 807.548
22.20000 780.946
22.24000 708.865
22.28000 693.485
22.32000 669.674
22.36000 631.308
22.40000 600.846
22.44000 589.597
22.48000 575.028
22.52000 576.882
22.56000 577.971
22.60000 548.164
22.64000 536.160
22.68000 528.389
22.72000 537.071
22.76000 534.348
22.80000 519.413
22.84000 513.494
22.88000 518.094
22.92000 530.524
22.96000 528.911
23.00000 527.708
23.04000 539.876
23.08000 508.440
23.12000 522.956
23.16000 523.514
23.20000 525.771
23.24000 518.346
23.28000 511.964
23.32000 547.594
23.36000 514.399
23.40000 501.179
23.44000 471.200
23.48000 499.996
23.52000 513.556
23.56000 503.054
23.60000 516.623
23.64000 499.383
23.68000 519.037
23.72000 516.648
23.76000 494.269
23.80000 505.115
23.84000 507.123
23.88000 501.663
23.92000 509.478
23.96000 474.763
24.00000 482.074
24.04000 514.388
24.08000 476.081
24.12000 498.330
24.16000 494.992
24.20000 484.930
24.24000 488.053
24.28000 479.077
24.32000 501.368
24.36000 504.606
24.40000 479.535
24.44000 495.880
24.48000 478.685
24.52000 497.075
24.56000 502.190
24.60000 470.965
24.64000 488.640
24.68000 492.814
24.72000 499.378
24.76000 490.306
24.80000 479.814
24.84000 497.393
24.88000 466.335
24.92000 488.201
24.96000 478.506
25.00000 464.792
25.04000 485.771
25.08000 480.886
25.12000 484.787
25.16000 481.592
25.20000 485.488
25.24000 480.455
25.28000 478.067
25.32000 465.648
25.36000 485.833
25.40000 464.670
25.44000 505.702
25.48000 481.142
25.52000 465.108
25.56000 461.230
25.60000 470.529
25.64000 496.405
25.68000 473.327
25.72000 488.545
25.76000 473.814
25.80000 480.686
25.84000 484.590
25.88000 471.103
25.92000 456.556
25.96000 482.439
26.00000 455.736
26.04000 465.954
26.08000 463.137
26.12000 461.346
26.16000 471.067
26.20000 465.458
26.24000 482.111
26.28000 495.921
26.32000 465.674
26.36000 463.268
26.40000 452.512
26.44000 448.411
26.48000 459.168
26.52000 461.065
26.56000 453.882
26.60000 452.939
26.64000 454.134
26.68000 467.057
26.72000 453.632
26.76000 450.584
26.80000 474.933
26.84000 440.208
26.88000 450.623
26.92000 442.047
26.96000 458.542
27.00000 441.829
27.04000 457.136
27.08000 444.963
27.12000 457.595
27.16000 460.047
27.20000 454.907
27.24000 452.589
27.28000 450.581
27.32000 437.265
27.36000 454.035
27.40000 447.374
27.44000 440.117
27.48000 443.598
27.52000 442.763
27.56000 438.385
27.60000 436.170
27.64000 449.443
27.68000 430.607
27.72000 431.744
27.76000 436.256
27.80000 438.446
27.84000 443.301
27.88000 452.111
27.92000 427.996
27.96000 443.632
28.00000 433.522
28.04000 433.542
28.08000 433.155
28.12000 428.561
28.16000 430.805
28.20000 440.395
28.24000 431.222
28.28000 445.211
28.32000 438.036
28.36000 443.444
28.40000 439.337
28.44000 439.565
28.48000 431.097
28.52000 426.754
28.56000 443.654
28.60000 420.388
28.64000 410.395
28.68000 426.982
28.72000 437.392
28.76000 425.088
28.80000 414.644
28.84000 422.877
28.88000 423.907
28.92000 440.299
28.96000 423.544
29.00000 417.346
29.04000 414.879
29.08000 434.054
29.12000 414.543
29.16000 412.650
29.20000 433.271
29.24000 414.712
29.28000 415.848
29.32000 421.699
29.36000 421.489
29.40000 408.930
29.44000 408.249
29.48000 424.417
29.52000 440.908
29.56000 415.067
29.60000 443.052
29.64000 419.837
29.68000 416.997
29.72000 424.786
29.76000 428.041
29.80000 433.931
29.84000 436.908
29.88000 421.682
29.92000 432.272
29.96000 459.969
30.00000 450.422
30.04000 450.613
30.08000 462.929
30.12000 441.196
30.16000 467.128
30.20000 452.364
30.24000 438.454
30.28000 455.018
30.32000 436.821
30.36000 434.025
30.40000 451.953
30.44000 439.705
30.48000 434.044
30.52000 448.760
30.56000 432.596
30.60000 446.744
30.64000 459.622
30.68000 467.901
30.72000 476.311
30.76000 468.977
30.80000 481.020
30.84000 488.845
30.88000 515.460
30.92000 538.382
30.96000 587.263
31.00000 634.266
31.04000 688.908
31.08000 821.195
31.12000 1038.429
31.16000 1314.338
31.20000 1714.525
31.24000 2182.512
31.28000 2684.009
31.32000 2985.938
31.36000 3351.538
31.40000 3401.180
31.44000 3175.417
31.48000 2834.263
31.52000 2399.446
31.56000 1959.905
31.60000 1614.730
31.64000 1220.979
31.68000 970.174
31.72000 830.971
31.76000 696.885
31.80000 601.615
31.84000 564.934
31.88000 544.426
31.92000 483.188
31.96000 476.909
32.00000 469.059
32.04000 461.156
32.08000 445.212
32.12000 422.206
32.16000 407.337
32.20000 415.139
32.24000 399.017
32.28000 403.759
32.32000 414.650
32.36000 409.002
32.40000 411.989
32.44000 413.040
32.48000 419.739
32.52000 374.654
32.56000 394.562
32.60000 403.944
32.64000 388.569
32.68000 382.056
32.72000 395.103
32.76000 405.659
32.80000 408.159
32.84000 426.269
32.88000 436.818
32.92000 446.487
32.96000 413.321
33.00000 422.378
33.04000 405.122
33.08000 392.326
33.12000 384.443
33.16000 356.840
33.20000 364.376
33.24000 353.243
33.28000 365.402
33.32000 361.003
33.36000 355.572
33.40000 365.393
33.44000 357.619
33.48000 356.546
33.52000 352.769
33.56000 341.948
33.60000 347.483
33.64000 351.413
33.68000 347.086
33.72000 361.262
33.76000 356.020
33.80000 354.500
33.84000 335.850
33.88000 358.387
33.92000 347.202
33.96000 346.355
34.00000 351.277
34.04000 339.109
34.08000 350.657
34.12000 316.741
34.16000 331.119
34.20000 341.785
34.24000 319.714
34.28000 321.325
34.32000 337.067
34.36000 327.023
34.40000 337.132
34.44000 323.725
34.48000 326.224
34.52000 341.074
34.56000 332.527
34.60000 333.752
34.64000 348.760
34.68000 318.769
34.72000 318.759
34.76000 320.914
34.80000 318.812
34.84000 321.570
34.88000 324.239
34.92000 316.873
34.96000 327.985
35.00000 335.827
35.04000 325.990
35.08000 313.540
35.12000 325.440
35.16000 323.159
35.20000 302.900
35.24000 321.848
35.28000 309.619
35.32000 313.336
35.36000 301.419
35.40000 318.043
35.44000 318.637
35.48000 321.900
35.52000 316.622
35.56000 310.621
35.60000 299.919
35.64000 314.025
35.68000 325.161
35.72000 310.889
35.76000 331.459
35.80000 313.551
35.84000 304.709
35.88000 315.321
35.92000 307.817
35.96000 307.434
36.00000 309.652
36.04000 295.183
36.08000 291.392
36.12000 303.154
36.16000 295.892
36.20000 310.526
36.24000 292.391
36.28000 297.207
36.32000 293.246
36.36000 306.560
36.40000 301.836
36.44000 307.789
36.48000 302.537
36.52000 299.973
36.56000 294.716
36.60000 288.533
36.64000 307.392
36.68000 308.192
36.72000 298.596
36.76000 299.559
36.80000 287.682
36.84000 296.854
36.88000 315.522
36.92000 306.606
36.96000 304.713
37.00000 292.764
37.04000 322.960
37.08000 299.806
37.12000 302.838
37.16000 298.255
37.20000 320.340
37.24000 310.436
37.28000 301.047
37.32000 300.480
37.36000 312.692
37.40000 306.469
37.44000 294.339
37.48000 297.054
37.52000 305.378
37.56000 300.466
37.60000 297.293
37.64000 302.361
37.68000 300.573
37.72000 309.379
37.76000 305.347
37.80000 290.199
37.84000 290.191
37.88000 298.430
37.92000 295.677
37.96000 289.432
38.00000 308.992
38.04000 287.779
38.08000 319.985
38.12000 320.371
38.16000 324.334
38.20000 323.522
38.24000 340.717
38.28000 351.625
38.32000 349.486
38.36000 371.150
38.40000 413.011
38.44000 473.674
38.48000 539.883
38.52000 592.425
38.56000 656.168
38.60000 759.809
38.64000 871.390
38.68000 904.723
38.72000 927.742
38.76000 863.013
38.80000 769.704
38.84000 673.821
38.88000 600.346
38.92000 526.131
38.96000 459.185
39.00000 400.514
39.04000 372.905
39.08000 345.132
39.12000 324.556
39.16000 328.382
39.20000 306.622
39.24000 299.692
39.28000 302.692
39.32000 297.854
39.36000 291.616
39.40000 285.546
39.44000 289.794
39.48000 299.752
39.52000 283.473
39.56000 282.293
39.60000 279.033
39.64000 283.105
39.68000 271.098
39.72000 289.994
39.76000 273.316
39.80000 274.776
39.84000 281.959
39.88000 287.547
39.92000 273.237
39.96000 258.368
40.00000 271.503
40.04000 277.242
40.08000 272.466
40.12000 271.709
40.16000 271.419
40.20000 268.913
40.24000 274.618
40.28000 267.810
40.32000 269.444
40.36000 283.955
40.40000 272.171
40.44000 262.654
40.48000 270.599
40.52000 249.521
40.56000 263.213
40.60000 254.052
40.64000 266.842
40.68000 264.154
40.72000 256.108
40.76000 274.392
40.80000 267.322
40.84000 261.542
40.88000 245.415
40.92000 253.463
40.96000 255.179
41.00000 258.173
41.04000 249.160
41.08000 257.163
41.12000 254.708
41.16000 247.757
41.20000 252.339
41.24000 250.699
41.28000 244.297
41.32000 256.943
41.36000 250.705
41.40000 255.671
41.44000 256.868
41.48000 250.120
41.52000 242.423
41.56000 256.258
41.60000 257.960
41.64000 239.627
41.68000 255.201
41.72000 262.510
41.76000 248.310
41.80000 240.367
41.84000 233.894
41.88000 240.496
41.92000 242.481
41.96000 238.067
42.00000 231.909
42.04000 230.760
42.08000 232.001
42.12000 250.618
42.16000 238.686
42.20000 245.488
42.24000 256.687
42.28000 239.710
42.32000 250.045
42.36000 250.026
42.40000 233.139
42.44000 234.596
42.48000 243.211
42.52000 248.605
42.56000 242.508
42.60000 241.349
42.64000 228.819
42.68000 248.594
42.72000 230.363
42.76000 234.734
42.80000 245.345
42.84000 233.432
42.88000 234.080
42.92000 224.670
42.96000 234.652
43.00000 244.641
43.04000 231.070
43.08000 244.947
43.12000 232.973
43.16000 247.535
43.20000 238.351
43.24000 225.064
43.28000 233.554
43.32000 229.855
43.36000 240.346
43.40000 225.580
43.44000 230.135
43.48000 240.806
43.52000 226.966
43.56000 233.457
43.60000 237.774
43.64000 225.896
43.68000 228.531
43.72000 231.147
43.76000 216.995
43.80000 229.485
43.84000 230.550
43.88000 219.518
43.92000 246.820
43.96000 228.451
44.00000 235.207
44.04000 228.134
44.08000 219.969
44.12000 229.654
44.16000 236.722
44.20000 232.836
44.24000 235.906
44.28000 233.189
44.32000 239.912
44.36000 241.214
44.40000 240.433
44.44000 254.641
44.48000 250.339
44.52000 252.287
44.56000 270.791
44.60000 279.395
44.64000 290.436
44.68000 291.702
44.72000 309.334
44.76000 334.599
44.80000 348.986
44.84000 383.572
44.88000 414.300
44.92000 448.326
44.96000 489.628
45.00000 475.816
45.04000 488.690
45.08000 471.946
45.12000 472.217
45.16000 450.947
45.20000 434.248
45.24000 391.640
45.28000 381.428
45.32000 354.023
45.36000 338.750
45.40000 324.658
45.44000 310.169
45.48000 298.728
45.52000 291.216
45.56000 279.770
45.60000 256.949
45.64000 258.706
45.68000 253.351
45.72000 250.619
45.76000 245.468
45.80000 232.590
45.84000 241.988
45.88000 236.052
45.92000 235.308
45.96000 231.210
46.00000 223.818
46.04000 215.991
46.08000 227.906
46.12000 230.842
46.16000 224.360
46.20000 228.647
46.24000 209.716
46.28000 214.951
46.32000 208.223
46.36000 210.994
46.40000 202.499
46.44000 217.318
46.48000 207.499
46.52000 207.384
46.56000 203.653
46.60000 202.034
46.64000 207.309
46.68000 193.012
46.72000 210.418
46.76000 197.014
46.80000 204.930
46.84000 198.960
46.88000 201.881
46.92000 203.428
46.96000 198.892
47.00000 202.578
47.04000 210.899
47.08000 190.893
47.12000 183.865
47.16000 185.257
47.20000 184.494
47.24000 192.159
47.28000 198.880
47.32000 200.733
47.36000 177.999
47.40000 187.637
47.44000 194.959
47.48000 193.881
47.52000 198.598
47.56000 185.885
47.60000 191.026
47.64000 202.448
47.68000 191.506
47.72000 183.657
47.76000 189.286
47.80000 192.105
47.84000 191.348
47.88000 184.278
47.92000 189.342
47.96000 180.893
48.00000 170.166
48.04000 184.619
48.08000 182.650
48.12000 188.510
48.16000 182.126
48.20000 191.941
48.24000 188.882
48.28000 182.966
48.32000 184.285
48.36000 180.530
48.40000 179.322
48.44000 176.002
48.48000 184.209
48.52000 198.056
48.56000 179.249
48.60000 185.247
48.64000 188.607
48.68000 193.666
48.72000 186.612
48.76000 182.910
48.80000 185.756
48.84000 183.218
48.88000 182.778
48.92000 178.126
48.96000 184.613
49.00000 180.917
49.04000 175.159
49.08000 180.927
49.12000 196.739
49.16000 176.880
49.20000 178.671
49.24000 169.454
49.28000 183.199
49.32000 174.108
49.36000 177.564
49.40000 179.455
49.44000 177.715
49.48000 182.595
49.52000 190.852
49.56000 178.460
49.60000 177.165
49.64000 185.529
49.68000 168.175
49.72000 179.006
49.76000 184.557
49.80000 176.258
49.84000 180.948
49.88000 180.102
49.92000 174.475
49.96000 186.613
50.00000 177.011
50.04000 177.520
50.08000 182.290
50.12000 185.162
50.16000 195.345
50.20000 190.092
50.24000 184.693
50.28000 189.980
50.32000 191.907
50.36000 195.814
50.40000 192.210
50.44000 211.134
50.48000 210.807
50.52000 233.074
50.56000 249.711
50.60000 245.587
50.64000 274.175
50.68000 277.902
50.72000 279.310
50.76000 267.205
50.80000 256.411
50.84000 247.197
50.88000 236.451
50.92000 246.227
50.96000 216.753
51.00000 214.763
51.04000 207.854
51.08000 213.506
51.12000 194.238
51.16000 181.401
51.20000 181.083
51.24000 188.883
51.28000 181.478
51.32000 175.030
51.36000 180.946
51.40000 176.612
51.44000 175.974
51.48000 174.626
51.52000 159.755
51.56000 167.671
51.60000 169.921
51.64000 174.808
51.68000 174.494
51.72000 169.164
51.76000 169.216
51.80000 163.595
51.84000 161.493
51.88000 163.571
51.92000 151.706
51.96000 166.901
52.00000 174.213
52.04000 167.661
52.08000 161.302
52.12000 157.967
52.16000 168.063
52.20000 163.334
52.24000 169.116
52.28000 161.344
52.32000 166.927
52.36000 166.139
52.40000 158.524
52.44000 166.324
52.48000 158.793
52.52000 156.120
52.56000 172.065
52.60000 164.093
52.64000 161.722
52.68000 159.184
52.72000 161.862
52.76000 161.691
52.80000 162.653
52.84000 161.801
52.88000 163.399
52.92000 149.708
52.96000 156.458
53.00000 161.671
53.04000 167.340
53.08000 161.668
53.12000 167.790
53.16000 150.511
53.20000 168.271
53.24000 163.132
53.28000 159.352
53.32000 162.078
53.36000 166.723
53.40000 166.111
53.44000 156.188
53.48000 163.725
53.52000 165.347
53.56000 156.223
53.60000 168.026
53.64000 166.003
53.68000 161.468
53.72000 159.132
53.76000 164.833
53.80000 151.440
53.84000 165.426
53.88000 160.213
53.92000 160.422
53.96000 160.150
54.00000 153.559
54.04000 150.381
54.08000 154.638
54.12000 153.636
54.16000 158.906
54.20000 159.636
54.24000 169.158
54.28000 162.948
54.32000 155.066
54.36000 169.015
54.40000 167.693
54.44000 155.145
54.48000 152.943
54.52000 159.231
54.56000 168.573
54.60000 154.237
54.64000 156.287
54.68000 160.564
54.72000 156.908
54.76000 167.928
54.80000 156.129
54.84000 155.402
54.88000 151.245
54.92000 162.073
54.96000 155.554
55.00000 159.719
55.04000 172.747
55.08000 161.150
55.12000 174.501
55.16000 171.741
55.20000 177.178
55.24000 169.731
55.28000 188.748
55.32000 186.934
55.36000 191.118
55.40000 191.820
55.44000 194.456
55.48000 207.854
55.52000 240.578
55.56000 242.137
55.60000 281.243
55.64000 291.760
55.68000 324.786
55.72000 385.826
55.76000 436.295
55.80000 497.320
55.84000 540.554
55.88000 561.486
55.92000 605.532
55.96000 585.183
56.00000 565.082
56.04000 555.189
56.08000 480.855
56.12000 449.359
56.16000 409.834
56.20000 377.202
56.24000 338.189
56.28000 294.034
56.32000 274.980
56.36000 256.906
56.40000 239.161
56.44000 218.907
56.48000 214.120
56.52000 198.153
56.56000 184.188
56.60000 184.274
56.64000 172.329
56.68000 182.082
56.72000 172.256
56.76000 181.829
56.80000 161.969
56.84000 170.412
56.88000 159.244
56.92000 169.179
56.96000 152.198
57.00000 162.416
57.04000 156.196
57.08000 151.231
57.12000 155.219
57.16000 146.717
57.20000 137.427
57.24000 146.344
57.28000 132.519
57.32000 158.646
57.36000 150.964
57.40000 150.616
57.44000 147.048
57.48000 133.303
57.52000 146.713
57.56000 142.240
57.60000 149.790
57.64000 142.348
57.68000 147.627
57.72000 134.436
57.76000 141.079
57.80000 142.565
57.84000 148.084
57.88000 150.857
57.92000 150.317
57.96000 146.043
58.00000 145.084
58.04000 135.772
58.08000 145.327
58.12000 153.655
58.16000 148.832
58.20000 148.284
58.24000 136.339
58.28000 145.830
58.32000 136.244
58.36000 136.918
58.40000 141.559
58.44000 143.311
58.48000 139.968
58.52000 141.073
58.56000 132.416
58.60000 129.573
58.64000 133.411
58.68000 144.025
58.72000 143.568
58.76000 130.779
58.80000 139.100
58.84000 142.694
58.88000 136.655
58.92000 137.107
58.96000 145.936
59.00000 130.126
59.04000 136.082
59.08000 142.161
59.12000 128.065
59.16000 147.800
59.20000 136.283
59.24000 127.420
59.28000 140.158
59.32000 136.950
59.36000 145.825
59.40000 135.596
59.44000 139.128
59.48000 136.863
59.52000 132.932
59.56000 136.775
59.60000 124.651
59.64000 136.517
59.68000 133.598
59.72000 132.150
59.76000 140.374
59.80000 129.303
59.84000 129.800
59.88000 136.171
59.92000 127.439
59.96000 128.903
60.00000 137.466
60.04000 132.122
60.08000 127.404
60.12000 131.200
60.16000 131.832
60.20000 127.359
60.24000 128.943
60.28000 133.968
60.32000 142.237
60.36000 133.279
60.40000 136.866
60.44000 133.356
60.48000 139.338
60.52000 124.876
60.56000 127.269
60.60000 130.517
60.64000 133.371
60.68000 140.651
60.72000 132.102
60.76000 142.296
60.80000 136.961
60.84000 129.484
60.88000 131.435
60.92000 131.233
60.96000 126.347
61.00000 133.516
61.04000 132.333
61.08000 135.531
61.12000 131.449
61.16000 138.582
61.20000 142.701
61.24000 146.395
61.28000 145.228
61.32000 141.885
61.36000 139.860
61.40000 134.634
61.44000 154.327
61.48000 156.119
61.52000 190.504
61.56000 245.141
61.60000 313.388
61.64000 347.915
61.68000 374.847
61.72000 364.697
61.76000 343.391
61.80000 258.970
61.84000 196.295
61.88000 182.204
61.92000 158.634
61.96000 145.051
62.00000 155.082
62.04000 151.050
62.08000 147.192
62.12000 146.058
62.16000 144.732
62.20000 145.292
62.24000 141.263
62.28000 140.847
62.32000 144.091
62.36000 153.031
62.40000 143.124
62.44000 145.458
62.48000 153.263
62.52000 156.082
62.56000 146.518
62.60000 138.377
62.64000 149.553
62.68000 152.280
62.72000 156.583
62.76000 138.315
62.80000 153.233
62.84000 145.031
62.88000 153.559
62.92000 143.491
62.96000 155.407
63.00000 148.436
63.04000 141.349
63.08000 148.065
63.12000 145.869
63.16000 143.783
63.20000 143.194
63.24000 145.912
63.28000 149.993
63.32000 144.993
63.36000 165.642
63.40000 146.808
63.44000 153.686
63.48000 144.829
63.52000 148.073
63.56000 160.651
63.60000 157.837
63.64000 163.228
63.68000 159.451
63.72000 154.005
63.76000 159.817
63.80000 156.285
63.84000 156.822
63.88000 149.920
63.92000 161.118
63.96000 152.554
64.00000 160.019
64.04000 166.223
64.08000 163.984
64.12000 166.209
64.16000 164.779
64.20000 161.300
64.24000 165.680
64.28000 174.537
64.32000 168.190
64.36000 163.471
64.40000 162.326
64.44000 171.314
64.48000 177.333
64.52000 164.878
64.56000 170.880
64.60000 180.361
64.64000 184.842
64.68000 178.186
64.72000 169.331
64.76000 175.781
64.80000 186.950
64.84000 184.642
64.88000 198.218
64.92000 195.050
64.96000 201.003
65.00000 208.415
65.04000 205.032
65.08000 208.330
65.12000 212.116
65.16000 240.059
65.20000 234.616
65.24000 252.350
65.28000 276.921
65.32000 304.891
65.36000 333.962
65.40000 339.854
65.44000 340.915
65.48000 407.677
65.52000 421.365
65.56000 443.788
65.60000 459.781
65.64000 498.406
65.68000 618.298
65.72000 864.094
65.76000 1159.148
65.80000 1380.636
65.84000 1534.263
65.88000 1557.626
65.92000 1501.368
65.96000 1291.736
66.00000 866.404
66.04000 579.002
66.08000 460.196
66.12000 379.321
66.16000 365.335
66.20000 367.431
66.24000 393.749
66.28000 428.755
66.32000 495.538
66.36000 551.532
66.40000 582.263
66.44000 589.361
66.48000 548.929
66.52000 504.749
66.56000 420.338
66.60000 404.049
66.64000 381.108
66.68000 367.047
66.72000 355.089
66.76000 371.328
66.80000 379.667
66.84000 369.946
66.88000 382.310
66.92000 389.218
66.96000 379.947
67.00000 405.820
67.04000 410.612
67.08000 415.666
67.12000 418.936
67.16000 424.344
67.20000 414.797
67.24000 428.414
67.28000 440.314
67.32000 430.586
67.36000 482.061
67.40000 489.721
67.44000 473.091
67.48000 485.882
67.52000 498.419
67.56000 502.961
67.60000 520.807
67.64000 526.259
67.68000 526.443
67.72000 542.165
67.76000 556.652
67.80000 577.408
67.84000 582.502
67.88000 589.407
67.92000 599.071
67.96000 587.296
68.00000 629.599
68.04000 629.014
68.08000 662.531
68.12000 665.539
68.16000 673.811
68.20000 674.105
68.24000 732.250
68.28000 756.831
68.32000 780.255
68.36000 818.484
68.40000 855.841
68.44000 899.076
68.48000 928.006
68.52000 1039.679
68.56000 1081.184
68.60000 1287.787
68.64000 1527.767
68.68000 1852.643
68.72000 2162.626
68.76000 2519.103
68.80000 3010.031
68.84000 3829.432
68.88000 5374.163
68.92000 9988.506
68.96000 23383.781
69.00000 48866.816
69.04000 74604.297
69.08000 87968.102
69.12000 91300.063
69.16000 94880.617
69.20000 92597.172
69.24000 77045.422
69.28000 59497.707
69.32000 49375.063
69.36000 43907.418
69.40000 35223.141
69.44000 21189.455
69.48000 10019.703
69.52000 4567.083
69.56000 2717.921
69.60000 2075.649
69.64000 1686.075
69.68000 1427.074
69.72000 1287.180
69.76000 1167.645
69.80000 1072.915
69.84000 981.296
69.88000 953.894
69.92000 901.922
69.96000 856.448
70.00000 825.909