File: XRD/22-09-2025 Dep 2/XY Data/BTO_Mapping_Theta2Theta_22-09-2025_001_41_-50-000_0-000.xy
20.00000 580.476
20.04000 565.232
20.08000 578.810
20.12000 592.654
20.16000 566.608
20.20000 592.860
20.24000 563.571
20.28000 568.531
20.32000 542.005
20.36000 548.409
20.40000 566.218
20.44000 562.425
20.48000 568.959
20.52000 568.445
20.56000 554.055
20.60000 565.074
20.64000 566.648
20.68000 578.325
20.72000 567.733
20.76000 566.479
20.80000 573.814
20.84000 568.219
20.88000 566.954
20.92000 552.032
20.96000 537.552
21.00000 553.615
21.04000 557.181
21.08000 558.592
21.12000 567.015
21.16000 545.757
21.20000 577.677
21.24000 568.928
21.28000 533.410
21.32000 550.919
21.36000 544.797
21.40000 540.691
21.44000 572.786
21.48000 560.597
21.52000 550.716
21.56000 553.666
21.60000 561.617
21.64000 562.963
21.68000 549.828
21.72000 559.062
21.76000 546.298
21.80000 541.677
21.84000 561.754
21.88000 582.087
21.92000 555.451
21.96000 549.911
22.00000 539.814
22.04000 557.027
22.08000 553.892
22.12000 548.074
22.16000 536.503
22.20000 551.436
22.24000 546.556
22.28000 551.539
22.32000 553.180
22.36000 551.887
22.40000 515.592
22.44000 521.732
22.48000 533.174
22.52000 551.015
22.56000 556.331
22.60000 542.859
22.64000 545.856
22.68000 553.467
22.72000 522.350
22.76000 539.791
22.80000 530.934
22.84000 538.417
22.88000 531.841
22.92000 538.392
22.96000 548.233
23.00000 536.746
23.04000 533.175
23.08000 532.689
23.12000 541.285
23.16000 542.078
23.20000 548.185
23.24000 542.438
23.28000 528.569
23.32000 527.708
23.36000 517.116
23.40000 534.570
23.44000 548.027
23.48000 543.139
23.52000 529.182
23.56000 547.303
23.60000 556.328
23.64000 525.237
23.68000 534.765
23.72000 539.081
23.76000 529.388
23.80000 531.757
23.84000 542.669
23.88000 539.954
23.92000 532.804
23.96000 518.818
24.00000 538.728
24.04000 515.277
24.08000 519.279
24.12000 532.892
24.16000 546.487
24.20000 532.707
24.24000 534.358
24.28000 532.060
24.32000 543.874
24.36000 548.799
24.40000 541.134
24.44000 526.112
24.48000 543.846
24.52000 528.513
24.56000 529.223
24.60000 530.213
24.64000 533.136
24.68000 561.073
24.72000 545.172
24.76000 536.463
24.80000 525.608
24.84000 524.430
24.88000 531.394
24.92000 530.431
24.96000 548.018
25.00000 546.576
25.04000 544.142
25.08000 532.474
25.12000 525.167
25.16000 544.242
25.20000 533.941
25.24000 546.999
25.28000 539.900
25.32000 530.595
25.36000 533.576
25.40000 539.116
25.44000 516.413
25.48000 527.123
25.52000 523.249
25.56000 518.250
25.60000 523.994
25.64000 539.797
25.68000 540.979
25.72000 541.265
25.76000 535.753
25.80000 521.770
25.84000 534.955
25.88000 544.686
25.92000 530.774
25.96000 532.238
26.00000 542.852
26.04000 543.051
26.08000 530.098
26.12000 521.533
26.16000 533.014
26.20000 536.814
26.24000 539.241
26.28000 536.852
26.32000 541.167
26.36000 527.053
26.40000 550.294
26.44000 535.640
26.48000 533.507
26.52000 537.871
26.56000 552.071
26.60000 535.056
26.64000 529.308
26.68000 535.434
26.72000 529.257
26.76000 534.629
26.80000 556.307
26.84000 535.868
26.88000 545.567
26.92000 516.920
26.96000 537.434
27.00000 532.672
27.04000 537.651
27.08000 547.785
27.12000 539.076
27.16000 538.290
27.20000 583.721
27.24000 564.012
27.28000 576.125
27.32000 553.489
27.36000 556.962
27.40000 570.500
27.44000 550.943
27.48000 544.821
27.52000 570.604
27.56000 555.237
27.60000 557.447
27.64000 568.944
27.68000 557.212
27.72000 563.827
27.76000 568.596
27.80000 554.111
27.84000 561.182
27.88000 557.401
27.92000 545.750
27.96000 557.925
28.00000 573.799
28.04000 563.427
28.08000 569.357
28.12000 550.702
28.16000 548.257
28.20000 549.291
28.24000 555.041
28.28000 569.812
28.32000 560.085
28.36000 585.161
28.40000 563.897
28.44000 571.612
28.48000 567.266
28.52000 587.219
28.56000 562.902
28.60000 571.419
28.64000 560.724
28.68000 569.814
28.72000 579.345
28.76000 571.882
28.80000 590.483
28.84000 577.362
28.88000 584.924
28.92000 586.644
28.96000 575.334
29.00000 607.917
29.04000 605.824
29.08000 583.180
29.12000 600.508
29.16000 609.875
29.20000 587.793
29.24000 602.466
29.28000 614.787
29.32000 573.797
29.36000 597.606
29.40000 606.176
29.44000 608.675
29.48000 611.054
29.52000 601.901
29.56000 614.778
29.60000 580.854
29.64000 619.174
29.68000 599.733
29.72000 624.561
29.76000 621.416
29.80000 595.064
29.84000 623.112
29.88000 615.236
29.92000 618.993
29.96000 610.517
30.00000 606.115
30.04000 617.184
30.08000 647.482
30.12000 615.708
30.16000 630.192
30.20000 621.724
30.24000 642.563
30.28000 618.619
30.32000 641.932
30.36000 621.863
30.40000 631.575
30.44000 633.530
30.48000 642.860
30.52000 631.756
30.56000 633.103
30.60000 637.101
30.64000 662.898
30.68000 632.093
30.72000 644.104
30.76000 645.600
30.80000 659.112
30.84000 665.951
30.88000 665.280
30.92000 660.462
30.96000 652.831
31.00000 662.269
31.04000 663.663
31.08000 674.534
31.12000 667.667
31.16000 663.423
31.20000 665.621
31.24000 669.779
31.28000 668.244
31.32000 665.690
31.36000 663.682
31.40000 685.222
31.44000 691.219
31.48000 701.192
31.52000 678.913
31.56000 697.307
31.60000 672.098
31.64000 672.336
31.68000 692.043
31.72000 691.275
31.76000 698.746
31.80000 700.656
31.84000 711.943
31.88000 707.809
31.92000 711.115
31.96000 689.756
32.00000 714.706
32.04000 714.962
32.08000 724.738
32.12000 718.422
32.16000 714.257
32.20000 731.997
32.24000 730.710
32.28000 709.014
32.32000 727.908
32.36000 739.045
32.40000 729.902
32.44000 745.679
32.48000 740.342
32.52000 789.443
32.56000 765.761
32.60000 749.641
32.64000 761.935
32.68000 749.138
32.72000 774.576
32.76000 761.979
32.80000 766.005
32.84000 750.919
32.88000 776.293
32.92000 759.157
32.96000 776.096
33.00000 781.080
33.04000 810.899
33.08000 798.583
33.12000 780.731
33.16000 790.423
33.20000 777.742
33.24000 788.300
33.28000 785.028
33.32000 801.548
33.36000 799.461
33.40000 826.183
33.44000 785.682
33.48000 810.875
33.52000 805.699
33.56000 839.171
33.60000 818.895
33.64000 807.738
33.68000 838.275
33.72000 833.042
33.76000 848.206
33.80000 836.084
33.84000 844.341
33.88000 822.104
33.92000 871.012
33.96000 856.628
34.00000 884.758
34.04000 866.023
34.08000 872.184
34.12000 870.483
34.16000 856.556
34.20000 847.503
34.24000 890.177
34.28000 869.253
34.32000 878.702
34.36000 885.100
34.40000 906.687
34.44000 870.960
34.48000 882.558
34.52000 893.558
34.56000 915.615
34.60000 917.317
34.64000 891.628
34.68000 906.686
34.72000 904.518
34.76000 923.829
34.80000 923.333
34.84000 935.103
34.88000 937.492
34.92000 932.066
34.96000 912.046
35.00000 908.844
35.04000 954.077
35.08000 945.114
35.12000 963.787
35.16000 957.688
35.20000 963.466
35.24000 961.573
35.28000 973.777
35.32000 990.092
35.36000 995.594
35.40000 984.072
35.44000 967.647
35.48000 983.556
35.52000 985.540
35.56000 972.636
35.60000 989.787
35.64000 998.730
35.68000 976.534
35.72000 1008.563
35.76000 1020.222
35.80000 1032.309
35.84000 1027.911
35.88000 1023.970
35.92000 1046.634
35.96000 1041.158
36.00000 1058.550
36.04000 1046.411
36.08000 1036.822
36.12000 1075.322
36.16000 1053.621
36.20000 1044.904
36.24000 1054.043
36.28000 1068.302
36.32000 1070.784
36.36000 1086.207
36.40000 1081.564
36.44000 1080.553
36.48000 1073.149
36.52000 1109.436
36.56000 1115.567
36.60000 1094.156
36.64000 1107.417
36.68000 1112.031
36.72000 1126.521
36.76000 1119.182
36.80000 1130.427
36.84000 1143.059
36.88000 1153.505
36.92000 1162.869
36.96000 1145.355
37.00000 1150.757
37.04000 1158.900
37.08000 1156.784
37.12000 1129.736
37.16000 1180.730
37.20000 1186.218
37.24000 1176.298
37.28000 1201.338
37.32000 1176.781
37.36000 1179.098
37.40000 1204.145
37.44000 1202.497
37.48000 1240.786
37.52000 1237.253
37.56000 1240.978
37.60000 1227.694
37.64000 1248.368
37.68000 1230.347
37.72000 1222.756
37.76000 1221.216
37.80000 1256.190
37.84000 1246.998
37.88000 1246.340
37.92000 1248.460
37.96000 1246.159
38.00000 1249.182
38.04000 1286.049
38.08000 1280.495
38.12000 1288.171
38.16000 1291.670
38.20000 1291.477
38.24000 1316.822
38.28000 1307.662
38.32000 1305.466
38.36000 1324.110
38.40000 1351.001
38.44000 1326.869
38.48000 1364.732
38.52000 1334.001
38.56000 1320.505
38.60000 1360.294
38.64000 1357.312
38.68000 1340.261
38.72000 1357.979
38.76000 1380.325
38.80000 1383.147
38.84000 1427.932
38.88000 1400.850
38.92000 1428.418
38.96000 1375.132
39.00000 1422.772
39.04000 1400.162
39.08000 1432.001
39.12000 1440.041
39.16000 1435.330
39.20000 1425.236
39.24000 1428.309
39.28000 1460.744
39.32000 1439.632
39.36000 1456.629
39.40000 1472.449
39.44000 1447.745
39.48000 1467.079
39.52000 1411.565
39.56000 1463.344
39.60000 1482.193
39.64000 1530.707
39.68000 1500.855
39.72000 1465.287
39.76000 1510.307
39.80000 1512.141
39.84000 1507.784
39.88000 1553.317
39.92000 1555.527
39.96000 1539.288
40.00000 1528.540
40.04000 1511.430
40.08000 1539.565
40.12000 1583.617
40.16000 1567.563
40.20000 1582.414
40.24000 1565.591
40.28000 1566.669
40.32000 1573.548
40.36000 1577.051
40.40000 1578.247
40.44000 1590.869
40.48000 1570.302
40.52000 1599.823
40.56000 1570.568
40.60000 1591.059
40.64000 1595.896
40.68000 1628.192
40.72000 1649.014
40.76000 1618.939
40.80000 1643.363
40.84000 1652.234
40.88000 1645.269
40.92000 1654.893
40.96000 1647.237
41.00000 1681.951
41.04000 1690.623
41.08000 1663.885
41.12000 1677.098
41.16000 1707.360
41.20000 1727.767
41.24000 1679.997
41.28000 1747.702
41.32000 1686.594
41.36000 1717.367
41.40000 1696.189
41.44000 1722.826
41.48000 1721.574
41.52000 1732.312
41.56000 1693.662
41.60000 1769.027
41.64000 1780.097
41.68000 1755.623
41.72000 1748.244
41.76000 1757.840
41.80000 1710.797
41.84000 1770.065
41.88000 1765.922
41.92000 1760.486
41.96000 1757.204
42.00000 1754.548
42.04000 1792.764
42.08000 1824.285
42.12000 1837.737
42.16000 1855.047
42.20000 1868.462
42.24000 1878.716
42.28000 1842.731
42.32000 1840.295
42.36000 1843.511
42.40000 1883.772
42.44000 1858.093
42.48000 1839.037
42.52000 1860.580
42.56000 1918.655
42.60000 1890.159
42.64000 1861.938
42.68000 1828.975
42.72000 1864.718
42.76000 1888.823
42.80000 1918.136
42.84000 1888.469
42.88000 1911.346
42.92000 1950.954
42.96000 1946.864
43.00000 1932.036
43.04000 1919.942
43.08000 1954.103
43.12000 1928.935
43.16000 1920.214
43.20000 1955.397
43.24000 1979.490
43.28000 1962.935
43.32000 1996.005
43.36000 1995.105
43.40000 1987.043
43.44000 2009.088
43.48000 2073.771
43.52000 2043.855
43.56000 2060.789
43.60000 2080.964
43.64000 2115.832
43.68000 2185.235
43.72000 2209.259
43.76000 2312.260
43.80000 2422.094
43.84000 2478.733
43.88000 2644.958
43.92000 2839.847
43.96000 3150.954
44.00000 3518.420
44.04000 4040.128
44.08000 4663.005
44.12000 5323.858
44.16000 5901.641
44.20000 6482.852
44.24000 6853.021
44.28000 6861.298
44.32000 6748.236
44.36000 6290.190
44.40000 5686.414
44.44000 5098.210
44.48000 4362.926
44.52000 3907.624
44.56000 3433.101
44.60000 3139.061
44.64000 2837.966
44.68000 2661.757
44.72000 2522.982
44.76000 2389.547
44.80000 2346.363
44.84000 2248.503
44.88000 2214.610
44.92000 2223.213
44.96000 2196.976
45.00000 2150.221
45.04000 2148.573
45.08000 2191.288
45.12000 2136.946
45.16000 2147.076
45.20000 2115.870
45.24000 2083.165
45.28000 2111.977
45.32000 2102.851
45.36000 2155.372
45.40000 2099.329
45.44000 2115.943
45.48000 2120.611
45.52000 2069.929
45.56000 2094.714
45.60000 2073.880
45.64000 2091.682
45.68000 2134.051
45.72000 2124.503
45.76000 2099.772
45.80000 2106.356
45.84000 2096.605
45.88000 2150.047
45.92000 2160.648
45.96000 2141.603
46.00000 2146.380
46.04000 2148.286
46.08000 2094.999
46.12000 2169.255
46.16000 2134.989
46.20000 2133.070
46.24000 2122.874
46.28000 2148.603
46.32000 2188.690
46.36000 2144.105
46.40000 2173.576
46.44000 2153.188
46.48000 2170.352
46.52000 2193.993
46.56000 2128.723
46.60000 2157.548
46.64000 2130.872
46.68000 2180.453
46.72000 2181.584
46.76000 2185.603
46.80000 2162.714
46.84000 2211.003
46.88000 2185.684
46.92000 2137.776
46.96000 2175.690
47.00000 2221.557
47.04000 2212.225
47.08000 2208.693
47.12000 2187.985
47.16000 2171.647
47.20000 2221.863
47.24000 2212.139
47.28000 2187.524
47.32000 2169.567
47.36000 2220.291
47.40000 2202.981
47.44000 2213.672
47.48000 2187.140
47.52000 2212.364
47.56000 2176.396
47.60000 2205.891
47.64000 2200.291
47.68000 2227.587
47.72000 2181.628
47.76000 2210.613
47.80000 2201.384
47.84000 2222.822
47.88000 2222.090
47.92000 2218.392
47.96000 2196.402
48.00000 2209.396
48.04000 2229.647
48.08000 2244.184
48.12000 2228.970
48.16000 2234.270
48.20000 2284.301
48.24000 2231.536
48.28000 2205.205
48.32000 2213.023
48.36000 2275.218
48.40000 2242.928
48.44000 2204.253
48.48000 2206.157
48.52000 2253.643
48.56000 2233.393
48.60000 2217.754
48.64000 2287.046
48.68000 2287.803
48.72000 2265.070
48.76000 2269.885
48.80000 2273.214
48.84000 2289.154
48.88000 2283.094
48.92000 2257.036
48.96000 2282.137
49.00000 2230.303
49.04000 2246.041
49.08000 2251.563
49.12000 2261.945
49.16000 2304.972
49.20000 2271.435
49.24000 2323.787
49.28000 2294.701
49.32000 2237.176
49.36000 2275.556
49.40000 2272.086
49.44000 2283.202
49.48000 2313.878
49.52000 2264.304
49.56000 2321.944
49.60000 2296.411
49.64000 2290.459
49.68000 2306.001
49.72000 2295.574
49.76000 2343.108
49.80000 2294.743
49.84000 2255.999
49.88000 2300.682
49.92000 2279.358
49.96000 2272.010
50.00000 2284.494
50.04000 2284.731
50.08000 2299.420
50.12000 2284.783
50.16000 2320.353
50.20000 2349.427
50.24000 2325.465
50.28000 2282.692
50.32000 2275.936
50.36000 2316.382
50.40000 2281.467
50.44000 2333.708
50.48000 2322.766
50.52000 2285.001
50.56000 2300.927
50.60000 2338.165
50.64000 2292.527
50.68000 2331.622
50.72000 2364.696
50.76000 2358.922
50.80000 2337.440
50.84000 2346.236
50.88000 2327.779
50.92000 2304.909
50.96000 2318.503
51.00000 2337.938
51.04000 2327.612
51.08000 2332.948
51.12000 2360.576
51.16000 2338.323
51.20000 2321.975
51.24000 2323.390
51.28000 2335.197
51.32000 2330.000
51.36000 2346.676
51.40000 2359.276
51.44000 2343.435
51.48000 2338.043
51.52000 2367.604
51.56000 2341.462
51.60000 2306.689
51.64000 2355.515
51.68000 2344.409
51.72000 2330.362
51.76000 2320.547
51.80000 2348.455
51.84000 2367.232
51.88000 2390.633
51.92000 2363.364
51.96000 2384.391
52.00000 2373.070
52.04000 2369.558
52.08000 2345.177
52.12000 2344.111
52.16000 2323.237
52.20000 2369.486
52.24000 2342.476
52.28000 2406.393
52.32000 2369.595
52.36000 2375.904
52.40000 2351.679
52.44000 2368.010
52.48000 2399.938
52.52000 2357.846
52.56000 2370.703
52.60000 2331.853
52.64000 2342.453
52.68000 2387.158
52.72000 2353.932
52.76000 2359.219
52.80000 2360.079
52.84000 2368.753
52.88000 2391.346
52.92000 2345.161
52.96000 2408.547
53.00000 2400.441
53.04000 2375.281
53.08000 2361.570
53.12000 2392.363
53.16000 2368.888
53.20000 2417.312
53.24000 2343.656
53.28000 2353.747
53.32000 2418.426
53.36000 2423.767
53.40000 2376.371
53.44000 2365.580
53.48000 2366.872
53.52000 2380.356
53.56000 2397.074
53.60000 2410.094
53.64000 2361.711
53.68000 2393.591
53.72000 2383.770
53.76000 2377.936
53.80000 2433.326
53.84000 2411.519
53.88000 2402.941
53.92000 2377.843
53.96000 2391.743
54.00000 2392.547
54.04000 2422.793
54.08000 2377.377
54.12000 2406.204
54.16000 2363.583
54.20000 2365.998
54.24000 2373.086
54.28000 2397.728
54.32000 2423.344
54.36000 2370.572
54.40000 2392.948
54.44000 2445.408
54.48000 2434.054
54.52000 2403.617
54.56000 2378.643
54.60000 2377.530
54.64000 2405.189
54.68000 2358.211
54.72000 2417.390
54.76000 2426.896
54.80000 2406.499
54.84000 2435.430
54.88000 2416.436
54.92000 2386.346
54.96000 2407.006
55.00000 2383.944
55.04000 2359.578
55.08000 2406.023
55.12000 2380.861
55.16000 2395.306
55.20000 2390.704
55.24000 2409.345
55.28000 2419.696
55.32000 2398.485
55.36000 2412.198
55.40000 2369.075
55.44000 2431.654
55.48000 2399.087
55.52000 2390.620
55.56000 2412.580
55.60000 2406.996
55.64000 2421.017
55.68000 2392.024
55.72000 2455.123
55.76000 2405.000
55.80000 2388.438
55.84000 2440.703
55.88000 2366.574
55.92000 2428.399
55.96000 2402.973
56.00000 2409.578
56.04000 2444.076
56.08000 2428.848
56.12000 2400.479
56.16000 2396.053
56.20000 2423.240
56.24000 2442.518
56.28000 2444.642
56.32000 2381.573
56.36000 2433.781
56.40000 2398.872
56.44000 2400.883
56.48000 2423.089
56.52000 2461.524
56.56000 2379.278
56.60000 2430.597
56.64000 2402.824
56.68000 2440.142
56.72000 2409.666
56.76000 2388.914
56.80000 2395.815
56.84000 2389.755
56.88000 2399.385
56.92000 2407.324
56.96000 2425.733
57.00000 2439.000
57.04000 2412.434
57.08000 2439.886
57.12000 2439.929
57.16000 2441.218
57.20000 2415.340
57.24000 2408.746
57.28000 2448.580
57.32000 2447.496
57.36000 2414.088
57.40000 2395.717
57.44000 2379.454
57.48000 2416.673
57.52000 2418.219
57.56000 2433.794
57.60000 2458.484
57.64000 2406.066
57.68000 2399.901
57.72000 2423.653
57.76000 2400.444
57.80000 2415.149
57.84000 2379.645
57.88000 2394.105
57.92000 2403.213
57.96000 2446.121
58.00000 2368.139
58.04000 2412.773
58.08000 2435.203
58.12000 2402.000
58.16000 2423.063
58.20000 2440.301
58.24000 2407.370
58.28000 2419.414
58.32000 2454.042
58.36000 2421.989
58.40000 2361.969
58.44000 2397.167
58.48000 2412.879
58.52000 2406.911
58.56000 2452.165
58.60000 2401.228
58.64000 2423.578
58.68000 2430.927
58.72000 2440.811
58.76000 2397.211
58.80000 2416.487
58.84000 2393.911
58.88000 2405.978
58.92000 2389.669
58.96000 2448.965
59.00000 2417.469
59.04000 2400.786
59.08000 2418.072
59.12000 2373.898
59.16000 2352.210
59.20000 2395.588
59.24000 2402.064
59.28000 2372.768
59.32000 2428.578
59.36000 2456.516
59.40000 2419.707
59.44000 2422.558
59.48000 2426.046
59.52000 2409.304
59.56000 2418.037
59.60000 2404.973
59.64000 2419.915
59.68000 2379.087
59.72000 2399.616
59.76000 2450.560
59.80000 2366.883
59.84000 2392.381
59.88000 2392.407
59.92000 2381.711
59.96000 2382.081
60.00000 2399.284
60.04000 2409.575
60.08000 2398.928
60.12000 2434.564
60.16000 2427.919
60.20000 2443.421
60.24000 2394.567
60.28000 2385.667
60.32000 2405.083
60.36000 2408.584
60.40000 2428.231
60.44000 2408.436
60.48000 2410.300
60.52000 2406.761
60.56000 2396.690
60.60000 2423.938
60.64000 2432.343
60.68000 2373.389
60.72000 2410.208
60.76000 2409.320
60.80000 2405.871
60.84000 2465.911
60.88000 2461.733
60.92000 2415.649
60.96000 2399.821
61.00000 2385.578
61.04000 2399.516
61.08000 2400.417
61.12000 2419.671
61.16000 2418.671
61.20000 2414.716
61.24000 2407.303
61.28000 2424.593
61.32000 2398.973
61.36000 2397.213
61.40000 2400.809
61.44000 2415.557
61.48000 2443.694
61.52000 2419.714
61.56000 2416.943
61.60000 2434.783
61.64000 2413.239
61.68000 2425.090
61.72000 2401.833
61.76000 2422.466
61.80000 2424.580
61.84000 2413.549
61.88000 2490.389
61.92000 2439.709
61.96000 2392.992
62.00000 2398.577
62.04000 2424.450
62.08000 2423.783
62.12000 2401.875
62.16000 2442.575
62.20000 2448.423
62.24000 2418.800
62.28000 2428.137
62.32000 2437.897
62.36000 2439.926
62.40000 2429.638
62.44000 2393.208
62.48000 2401.437
62.52000 2391.486
62.56000 2405.607
62.60000 2408.732
62.64000 2416.950
62.68000 2428.921
62.72000 2431.589
62.76000 2408.821
62.80000 2401.879
62.84000 2394.202
62.88000 2430.155
62.92000 2443.151
62.96000 2426.557
63.00000 2432.446
63.04000 2398.582
63.08000 2416.365
63.12000 2444.687
63.16000 2425.775
63.20000 2436.895
63.24000 2483.935
63.28000 2382.533
63.32000 2413.492
63.36000 2421.233
63.40000 2417.680
63.44000 2444.341
63.48000 2423.696
63.52000 2406.402
63.56000 2426.283
63.60000 2430.538
63.64000 2457.526
63.68000 2433.747
63.72000 2418.140
63.76000 2353.568
63.80000 2402.454
63.84000 2405.271
63.88000 2443.111
63.92000 2470.204
63.96000 2400.868
64.00000 2457.350
64.04000 2436.267
64.08000 2473.572
64.12000 2542.037
64.16000 2541.182
64.20000 2504.125
64.24000 2542.347
64.28000 2572.077
64.32000 2651.071
64.36000 2655.714
64.40000 2700.833
64.44000 2739.045
64.48000 2810.765
64.52000 2821.040
64.56000 2805.736
64.60000 2806.351
64.64000 2800.212
64.68000 2754.766
64.72000 2788.707
64.76000 2754.926
64.80000 2750.001
64.84000 2653.223
64.88000 2626.898
64.92000 2619.138
64.96000 2585.536
65.00000 2579.915
65.04000 2529.347
65.08000 2536.938
65.12000 2479.072
65.16000 2515.503
65.20000 2452.596
65.24000 2477.082
65.28000 2408.909
65.32000 2475.895
65.36000 2480.270
65.40000 2447.601
65.44000 2433.961
65.48000 2394.865
65.52000 2440.061
65.56000 2427.043
65.60000 2392.521
65.64000 2473.699
65.68000 2422.900
65.72000 2383.094
65.76000 2380.199
65.80000 2387.832
65.84000 2363.783
65.88000 2376.071
65.92000 2456.546
65.96000 2418.581
66.00000 2373.933
66.04000 2361.847
66.08000 2389.600
66.12000 2410.770
66.16000 2370.827
66.20000 2385.815
66.24000 2382.342
66.28000 2398.704
66.32000 2373.161
66.36000 2405.795
66.40000 2414.994
66.44000 2403.106
66.48000 2424.900
66.52000 2394.803
66.56000 2375.347
66.60000 2410.154
66.64000 2381.620
66.68000 2404.939
66.72000 2379.677
66.76000 2367.786
66.80000 2421.299
66.84000 2357.937
66.88000 2418.196
66.92000 2397.958
66.96000 2375.931
67.00000 2351.613
67.04000 2436.014
67.08000 2412.858
67.12000 2363.493
67.16000 2379.998
67.20000 2398.208
67.24000 2458.173
67.28000 2421.635
67.32000 2402.460
67.36000 2398.390
67.40000 2337.041
67.44000 2387.792
67.48000 2406.767
67.52000 2409.510
67.56000 2387.444
67.60000 2414.670
67.64000 2391.205
67.68000 2373.881
67.72000 2376.078
67.76000 2399.168
67.80000 2422.543
67.84000 2394.208
67.88000 2338.007
67.92000 2354.641
67.96000 2440.677
68.00000 2393.169
68.04000 2375.552
68.08000 2375.334
68.12000 2392.834
68.16000 2361.715
68.20000 2374.075
68.24000 2380.991
68.28000 2368.447
68.32000 2373.667
68.36000 2360.031
68.40000 2381.458
68.44000 2428.839
68.48000 2385.797
68.52000 2379.477
68.56000 2351.122
68.60000 2378.843
68.64000 2385.760
68.68000 2366.516
68.72000 2373.988
68.76000 2409.690
68.80000 2365.765
68.84000 2396.243
68.88000 2409.690
68.92000 2388.828
68.96000 2380.828
69.00000 2439.744
69.04000 2386.888
69.08000 2340.968
69.12000 2398.357
69.16000 2395.803
69.20000 2366.885
69.24000 2383.904
69.28000 2392.720
69.32000 2374.516
69.36000 2425.245
69.40000 2376.709
69.44000 2402.964
69.48000 2415.813
69.52000 2354.327
69.56000 2362.103
69.60000 2408.073
69.64000 2370.821
69.68000 2388.706
69.72000 2354.082
69.76000 2375.255
69.80000 2362.110
69.84000 2380.202
69.88000 2400.428
69.92000 2365.711
69.96000 2346.633
70.00000 2366.847