File: XRD/22-09-2025 Dep 2/XY Data/BTO_Mapping_Theta2Theta_22-09-2025_001_62_6-235_-7-818.xy
20.00000 587.590
20.04000 567.309
20.08000 558.772
20.12000 577.400
20.16000 578.525
20.20000 561.355
20.24000 561.602
20.28000 571.000
20.32000 561.862
20.36000 575.606
20.40000 609.265
20.44000 551.234
20.48000 559.941
20.52000 580.553
20.56000 582.626
20.60000 566.183
20.64000 560.345
20.68000 570.195
20.72000 563.400
20.76000 549.080
20.80000 560.491
20.84000 558.081
20.88000 541.647
20.92000 562.924
20.96000 561.642
21.00000 555.098
21.04000 558.755
21.08000 571.292
21.12000 560.196
21.16000 548.465
21.20000 557.633
21.24000 559.789
21.28000 559.006
21.32000 555.375
21.36000 544.531
21.40000 568.604
21.44000 544.880
21.48000 551.417
21.52000 569.291
21.56000 552.013
21.60000 546.456
21.64000 563.548
21.68000 576.813
21.72000 574.966
21.76000 570.049
21.80000 607.272
21.84000 620.538
21.88000 700.401
21.92000 716.785
21.96000 743.003
22.00000 778.852
22.04000 788.755
22.08000 812.797
22.12000 802.892
22.16000 785.089
22.20000 763.326
22.24000 734.787
22.28000 668.933
22.32000 652.884
22.36000 625.350
22.40000 633.526
22.44000 596.758
22.48000 569.309
22.52000 576.023
22.56000 552.425
22.60000 559.320
22.64000 556.894
22.68000 524.692
22.72000 542.734
22.76000 537.645
22.80000 558.814
22.84000 526.058
22.88000 522.756
22.92000 522.359
22.96000 524.337
23.00000 516.995
23.04000 535.749
23.08000 510.826
23.12000 507.164
23.16000 527.317
23.20000 527.232
23.24000 515.292
23.28000 513.065
23.32000 513.110
23.36000 505.221
23.40000 507.043
23.44000 526.764
23.48000 496.025
23.52000 519.136
23.56000 499.030
23.60000 501.663
23.64000 511.608
23.68000 503.404
23.72000 501.464
23.76000 516.570
23.80000 508.497
23.84000 509.688
23.88000 517.732
23.92000 501.315
23.96000 517.006
24.00000 500.178
24.04000 519.388
24.08000 517.703
24.12000 516.893
24.16000 511.130
24.20000 493.732
24.24000 497.691
24.28000 504.988
24.32000 522.181
24.36000 515.789
24.40000 468.954
24.44000 475.148
24.48000 485.944
24.52000 492.311
24.56000 501.343
24.60000 486.910
24.64000 468.231
24.68000 472.880
24.72000 475.674
24.76000 485.684
24.80000 468.441
24.84000 493.976
24.88000 473.656
24.92000 475.089
24.96000 470.031
25.00000 478.399
25.04000 483.278
25.08000 481.785
25.12000 470.447
25.16000 498.775
25.20000 487.244
25.24000 473.097
25.28000 491.938
25.32000 474.911
25.36000 468.170
25.40000 481.966
25.44000 464.262
25.48000 473.388
25.52000 484.821
25.56000 449.915
25.60000 467.722
25.64000 465.240
25.68000 464.063
25.72000 463.745
25.76000 468.658
25.80000 469.103
25.84000 450.846
25.88000 472.487
25.92000 473.470
25.96000 495.220
26.00000 467.653
26.04000 467.227
26.08000 465.843
26.12000 467.527
26.16000 455.616
26.20000 470.903
26.24000 460.652
26.28000 448.205
26.32000 469.874
26.36000 456.594
26.40000 450.868
26.44000 461.796
26.48000 452.190
26.52000 457.780
26.56000 452.911
26.60000 448.319
26.64000 463.840
26.68000 451.809
26.72000 446.888
26.76000 435.589
26.80000 445.226
26.84000 444.086
26.88000 458.154
26.92000 453.634
26.96000 459.354
27.00000 462.261
27.04000 458.021
27.08000 446.169
27.12000 444.762
27.16000 440.623
27.20000 439.123
27.24000 439.529
27.28000 425.153
27.32000 439.092
27.36000 442.103
27.40000 435.213
27.44000 448.746
27.48000 431.044
27.52000 463.201
27.56000 434.679
27.60000 459.511
27.64000 432.655
27.68000 442.676
27.72000 445.301
27.76000 441.220
27.80000 447.012
27.84000 448.961
27.88000 432.816
27.92000 428.945
27.96000 455.154
28.00000 439.366
28.04000 438.872
28.08000 437.758
28.12000 437.618
28.16000 420.225
28.20000 442.793
28.24000 438.906
28.28000 425.217
28.32000 441.072
28.36000 440.761
28.40000 438.660
28.44000 436.364
28.48000 425.936
28.52000 412.787
28.56000 434.484
28.60000 436.081
28.64000 430.955
28.68000 438.212
28.72000 429.090
28.76000 423.740
28.80000 433.910
28.84000 415.238
28.88000 421.337
28.92000 420.751
28.96000 413.061
29.00000 416.055
29.04000 420.072
29.08000 403.069
29.12000 410.438
29.16000 410.661
29.20000 418.884
29.24000 419.455
29.28000 423.896
29.32000 427.067
29.36000 435.155
29.40000 423.298
29.44000 409.665
29.48000 435.071
29.52000 420.191
29.56000 426.559
29.60000 421.889
29.64000 412.933
29.68000 413.531
29.72000 405.088
29.76000 434.703
29.80000 418.834
29.84000 431.844
29.88000 423.033
29.92000 438.460
29.96000 453.391
30.00000 443.265
30.04000 460.659
30.08000 444.675
30.12000 453.510
30.16000 437.256
30.20000 460.720
30.24000 452.434
30.28000 434.784
30.32000 422.722
30.36000 438.135
30.40000 434.931
30.44000 439.782
30.48000 457.572
30.52000 436.711
30.56000 447.829
30.60000 454.347
30.64000 460.539
30.68000 476.687
30.72000 462.265
30.76000 480.106
30.80000 489.495
30.84000 496.893
30.88000 522.296
30.92000 540.128
30.96000 564.900
31.00000 624.957
31.04000 693.829
31.08000 796.034
31.12000 981.676
31.16000 1228.395
31.20000 1607.963
31.24000 2009.296
31.28000 2438.243
31.32000 2951.195
31.36000 3297.161
31.40000 3475.413
31.44000 3363.297
31.48000 3090.206
31.52000 2589.232
31.56000 2133.874
31.60000 1699.833
31.64000 1359.692
31.68000 1045.264
31.72000 897.758
31.76000 757.056
31.80000 648.577
31.84000 591.388
31.88000 564.748
31.92000 502.089
31.96000 490.163
32.00000 462.149
32.04000 442.399
32.08000 448.045
32.12000 434.901
32.16000 445.965
32.20000 427.997
32.24000 418.287
32.28000 393.636
32.32000 425.524
32.36000 414.252
32.40000 410.522
32.44000 408.339
32.48000 393.662
32.52000 388.460
32.56000 401.108
32.60000 388.064
32.64000 397.405
32.68000 396.894
32.72000 371.177
32.76000 391.045
32.80000 397.420
32.84000 418.154
32.88000 430.522
32.92000 433.251
32.96000 445.356
33.00000 432.335
33.04000 444.844
33.08000 398.868
33.12000 371.414
33.16000 386.032
33.20000 378.393
33.24000 346.970
33.28000 352.862
33.32000 358.442
33.36000 363.736
33.40000 360.699
33.44000 344.560
33.48000 365.059
33.52000 356.881
33.56000 356.727
33.60000 345.586
33.64000 342.898
33.68000 361.009
33.72000 355.033
33.76000 344.700
33.80000 324.629
33.84000 337.895
33.88000 341.442
33.92000 347.333
33.96000 333.024
34.00000 346.064
34.04000 345.936
34.08000 347.407
34.12000 345.685
34.16000 316.349
34.20000 348.001
34.24000 342.523
34.28000 346.135
34.32000 348.147
34.36000 343.921
34.40000 341.125
34.44000 338.544
34.48000 338.562
34.52000 346.016
34.56000 330.607
34.60000 323.463
34.64000 342.815
34.68000 337.141
34.72000 330.595
34.76000 312.835
34.80000 328.583
34.84000 318.935
34.88000 321.954
34.92000 332.848
34.96000 318.151
35.00000 320.986
35.04000 319.561
35.08000 317.217
35.12000 299.999
35.16000 334.185
35.20000 314.979
35.24000 312.685
35.28000 310.886
35.32000 310.760
35.36000 318.496
35.40000 331.505
35.44000 313.964
35.48000 319.231
35.52000 313.793
35.56000 312.524
35.60000 309.977
35.64000 307.050
35.68000 327.167
35.72000 305.927
35.76000 288.848
35.80000 304.745
35.84000 300.137
35.88000 295.130
35.92000 312.044
35.96000 315.221
36.00000 299.421
36.04000 316.453
36.08000 297.336
36.12000 307.565
36.16000 304.103
36.20000 288.348
36.24000 302.927
36.28000 286.665
36.32000 309.948
36.36000 303.631
36.40000 313.894
36.44000 304.928
36.48000 296.515
36.52000 314.567
36.56000 295.876
36.60000 316.734
36.64000 322.586
36.68000 298.002
36.72000 307.481
36.76000 303.703
36.80000 296.034
36.84000 307.948
36.88000 315.983
36.92000 315.420
36.96000 310.088
37.00000 300.419
37.04000 312.684
37.08000 303.193
37.12000 297.700
37.16000 307.794
37.20000 293.249
37.24000 289.666
37.28000 293.969
37.32000 289.957
37.36000 311.450
37.40000 298.749
37.44000 304.049
37.48000 292.205
37.52000 295.320
37.56000 310.003
37.60000 291.176
37.64000 282.634
37.68000 289.771
37.72000 295.392
37.76000 287.049
37.80000 304.097
37.84000 299.636
37.88000 304.944
37.92000 291.613
37.96000 303.687
38.00000 309.925
38.04000 301.975
38.08000 306.761
38.12000 300.123
38.16000 321.145
38.20000 328.311
38.24000 309.111
38.28000 328.305
38.32000 344.224
38.36000 365.368
38.40000 387.927
38.44000 398.689
38.48000 460.629
38.52000 538.580
38.56000 652.713
38.60000 745.731
38.64000 872.290
38.68000 962.510
38.72000 1015.617
38.76000 1015.786
38.80000 996.347
38.84000 869.157
38.88000 734.894
38.92000 622.819
38.96000 511.643
39.00000 456.882
39.04000 410.441
39.08000 375.930
39.12000 337.223
39.16000 317.924
39.20000 319.409
39.24000 304.774
39.28000 311.894
39.32000 295.122
39.36000 291.657
39.40000 292.913
39.44000 294.331
39.48000 281.976
39.52000 303.814
39.56000 285.269
39.60000 281.217
39.64000 273.871
39.68000 270.557
39.72000 280.479
39.76000 266.964
39.80000 275.123
39.84000 268.788
39.88000 273.932
39.92000 274.297
39.96000 270.357
40.00000 269.985
40.04000 264.526
40.08000 264.461
40.12000 263.623
40.16000 256.244
40.20000 265.328
40.24000 273.524
40.28000 251.536
40.32000 267.628
40.36000 259.294
40.40000 256.790
40.44000 258.052
40.48000 263.833
40.52000 263.878
40.56000 254.309
40.60000 253.726
40.64000 256.871
40.68000 254.259
40.72000 265.117
40.76000 248.104
40.80000 252.423
40.84000 255.209
40.88000 241.099
40.92000 251.999
40.96000 247.506
41.00000 235.651
41.04000 248.263
41.08000 246.653
41.12000 256.376
41.16000 249.323
41.20000 249.462
41.24000 244.567
41.28000 238.348
41.32000 261.554
41.36000 246.599
41.40000 250.393
41.44000 243.144
41.48000 249.026
41.52000 242.488
41.56000 252.980
41.60000 247.094
41.64000 244.889
41.68000 246.488
41.72000 248.941
41.76000 239.538
41.80000 241.562
41.84000 242.219
41.88000 247.434
41.92000 237.354
41.96000 246.427
42.00000 248.783
42.04000 239.720
42.08000 251.669
42.12000 253.185
42.16000 225.068
42.20000 233.466
42.24000 251.197
42.28000 232.674
42.32000 234.962
42.36000 225.445
42.40000 241.400
42.44000 250.152
42.48000 243.691
42.52000 252.247
42.56000 242.594
42.60000 231.469
42.64000 232.824
42.68000 237.391
42.72000 232.393
42.76000 239.854
42.80000 226.300
42.84000 246.125
42.88000 240.759
42.92000 243.462
42.96000 229.049
43.00000 234.868
43.04000 237.561
43.08000 227.312
43.12000 229.360
43.16000 228.792
43.20000 230.085
43.24000 232.185
43.28000 229.456
43.32000 238.051
43.36000 230.601
43.40000 222.972
43.44000 236.217
43.48000 223.901
43.52000 226.840
43.56000 231.135
43.60000 230.493
43.64000 229.543
43.68000 234.238
43.72000 222.437
43.76000 218.423
43.80000 226.813
43.84000 229.062
43.88000 224.988
43.92000 223.660
43.96000 222.645
44.00000 233.217
44.04000 221.742
44.08000 215.532
44.12000 226.938
44.16000 232.848
44.20000 242.564
44.24000 224.071
44.28000 232.101
44.32000 234.058
44.36000 227.370
44.40000 222.458
44.44000 237.430
44.48000 237.680
44.52000 246.643
44.56000 237.566
44.60000 245.989
44.64000 242.056
44.68000 248.355
44.72000 268.518
44.76000 254.685
44.80000 286.762
44.84000 290.053
44.88000 315.912
44.92000 342.056
44.96000 372.162
45.00000 398.639
45.04000 407.381
45.08000 424.248
45.12000 411.026
45.16000 403.652
45.20000 400.247
45.24000 391.314
45.28000 398.939
45.32000 364.503
45.36000 337.043
45.40000 305.740
45.44000 321.528
45.48000 297.198
45.52000 288.137
45.56000 284.230
45.60000 278.531
45.64000 267.519
45.68000 266.552
45.72000 251.912
45.76000 258.227
45.80000 249.813
45.84000 231.829
45.88000 235.778
45.92000 226.251
45.96000 213.225
46.00000 222.642
46.04000 213.627
46.08000 210.348
46.12000 224.520
46.16000 215.504
46.20000 211.046
46.24000 214.890
46.28000 209.408
46.32000 197.558
46.36000 204.932
46.40000 208.388
46.44000 203.978
46.48000 206.834
46.52000 198.401
46.56000 210.134
46.60000 194.689
46.64000 207.979
46.68000 204.885
46.72000 209.380
46.76000 201.934
46.80000 205.192
46.84000 200.690
46.88000 197.233
46.92000 189.818
46.96000 198.414
47.00000 198.301
47.04000 190.598
47.08000 196.063
47.12000 194.238
47.16000 190.170
47.20000 198.018
47.24000 192.278
47.28000 207.377
47.32000 190.485
47.36000 190.786
47.40000 203.299
47.44000 195.498
47.48000 185.879
47.52000 198.715
47.56000 196.131
47.60000 191.550
47.64000 195.173
47.68000 183.289
47.72000 184.273
47.76000 192.456
47.80000 191.864
47.84000 185.377
47.88000 201.362
47.92000 197.226
47.96000 195.202
48.00000 193.964
48.04000 193.750
48.08000 178.821
48.12000 191.302
48.16000 191.906
48.20000 199.792
48.24000 181.361
48.28000 181.407
48.32000 191.564
48.36000 178.926
48.40000 185.887
48.44000 183.774
48.48000 185.679
48.52000 177.059
48.56000 191.240
48.60000 176.870
48.64000 175.159
48.68000 175.799
48.72000 181.529
48.76000 187.726
48.80000 180.931
48.84000 182.256
48.88000 186.133
48.92000 187.002
48.96000 173.290
49.00000 176.907
49.04000 169.155
49.08000 183.017
49.12000 182.642
49.16000 175.612
49.20000 174.665
49.24000 175.352
49.28000 190.200
49.32000 192.064
49.36000 182.523
49.40000 173.161
49.44000 181.539
49.48000 180.289
49.52000 178.594
49.56000 181.555
49.60000 176.567
49.64000 184.571
49.68000 176.028
49.72000 177.416
49.76000 192.512
49.80000 173.089
49.84000 182.160
49.88000 180.949
49.92000 177.667
49.96000 170.100
50.00000 176.006
50.04000 180.830
50.08000 163.212
50.12000 177.599
50.16000 177.276
50.20000 175.177
50.24000 173.574
50.28000 185.508
50.32000 190.380
50.36000 193.195
50.40000 196.024
50.44000 203.206
50.48000 209.676
50.52000 214.278
50.56000 231.809
50.60000 220.337
50.64000 244.005
50.68000 253.278
50.72000 243.263
50.76000 266.658
50.80000 241.715
50.84000 238.750
50.88000 242.710
50.92000 241.552
50.96000 227.814
51.00000 216.479
51.04000 211.784
51.08000 198.141
51.12000 198.483
51.16000 187.915
51.20000 184.385
51.24000 186.554
51.28000 190.953
51.32000 172.473
51.36000 171.767
51.40000 171.968
51.44000 172.532
51.48000 164.821
51.52000 155.764
51.56000 157.210
51.60000 161.012
51.64000 170.719
51.68000 166.453
51.72000 174.323
51.76000 166.258
51.80000 164.288
51.84000 162.412
51.88000 164.603
51.92000 170.711
51.96000 164.093
52.00000 167.314
52.04000 166.754
52.08000 158.170
52.12000 162.268
52.16000 171.211
52.20000 158.216
52.24000 152.886
52.28000 170.508
52.32000 165.467
52.36000 166.841
52.40000 175.597
52.44000 162.020
52.48000 159.686
52.52000 170.249
52.56000 164.189
52.60000 166.381
52.64000 155.165
52.68000 157.068
52.72000 163.985
52.76000 164.535
52.80000 161.117
52.84000 152.265
52.88000 168.933
52.92000 159.559
52.96000 160.040
53.00000 159.588
53.04000 154.066
53.08000 162.061
53.12000 171.865
53.16000 156.380
53.20000 154.486
53.24000 163.478
53.28000 159.275
53.32000 156.122
53.36000 152.152
53.40000 157.342
53.44000 153.642
53.48000 168.201
53.52000 151.696
53.56000 158.233
53.60000 163.043
53.64000 167.253
53.68000 157.004
53.72000 169.506
53.76000 152.961
53.80000 154.322
53.84000 156.256
53.88000 151.336
53.92000 163.829
53.96000 164.224
54.00000 161.936
54.04000 175.702
54.08000 157.596
54.12000 160.858
54.16000 157.725
54.20000 153.520
54.24000 157.020
54.28000 148.980
54.32000 161.012
54.36000 152.591
54.40000 159.335
54.44000 160.145
54.48000 156.553
54.52000 162.155
54.56000 168.589
54.60000 153.435
54.64000 160.525
54.68000 164.927
54.72000 154.788
54.76000 155.359
54.80000 154.521
54.84000 160.130
54.88000 156.135
54.92000 159.217
54.96000 168.212
55.00000 157.875
55.04000 169.151
55.08000 155.976
55.12000 160.704
55.16000 162.147
55.20000 170.758
55.24000 170.042
55.28000 178.231
55.32000 171.674
55.36000 182.188
55.40000 168.738
55.44000 193.834
55.48000 199.948
55.52000 196.901
55.56000 207.510
55.60000 236.840
55.64000 249.958
55.68000 268.049
55.72000 303.981
55.76000 350.388
55.80000 383.769
55.84000 438.959
55.88000 488.373
55.92000 548.472
55.96000 549.560
56.00000 555.163
56.04000 541.877
56.08000 508.092
56.12000 459.662
56.16000 415.033
56.20000 386.778
56.24000 349.563
56.28000 303.270
56.32000 268.916
56.36000 245.207
56.40000 224.563
56.44000 211.151
56.48000 201.990
56.52000 186.126
56.56000 185.313
56.60000 189.665
56.64000 178.481
56.68000 174.397
56.72000 165.732
56.76000 157.008
56.80000 170.145
56.84000 163.182
56.88000 151.019
56.92000 171.730
56.96000 149.243
57.00000 151.642
57.04000 152.185
57.08000 153.526
57.12000 155.584
57.16000 146.316
57.20000 155.345
57.24000 150.203
57.28000 153.770
57.32000 152.442
57.36000 141.599
57.40000 144.306
57.44000 136.058
57.48000 152.241
57.52000 144.302
57.56000 145.822
57.60000 159.030
57.64000 147.575
57.68000 143.628
57.72000 139.364
57.76000 139.925
57.80000 140.347
57.84000 132.164
57.88000 139.680
57.92000 144.907
57.96000 139.487
58.00000 146.840
58.04000 145.931
58.08000 143.110
58.12000 146.523
58.16000 145.386
58.20000 146.194
58.24000 133.777
58.28000 139.320
58.32000 140.734
58.36000 143.479
58.40000 140.151
58.44000 138.794
58.48000 141.124
58.52000 129.498
58.56000 144.863
58.60000 148.616
58.64000 137.905
58.68000 140.521
58.72000 135.424
58.76000 137.514
58.80000 142.897
58.84000 136.076
58.88000 132.069
58.92000 137.127
58.96000 136.115
59.00000 136.744
59.04000 141.229
59.08000 128.458
59.12000 139.414
59.16000 141.941
59.20000 131.321
59.24000 141.698
59.28000 130.362
59.32000 130.534
59.36000 134.785
59.40000 136.906
59.44000 134.464
59.48000 127.653
59.52000 132.640
59.56000 145.603
59.60000 139.419
59.64000 137.072
59.68000 132.623
59.72000 145.884
59.76000 137.354
59.80000 130.366
59.84000 127.726
59.88000 138.858
59.92000 132.741
59.96000 135.315
60.00000 132.675
60.04000 134.201
60.08000 135.000
60.12000 128.368
60.16000 133.496
60.20000 125.230
60.24000 126.741
60.28000 135.541
60.32000 145.341
60.36000 122.745
60.40000 127.049
60.44000 132.739
60.48000 129.969
60.52000 133.368
60.56000 128.913
60.60000 124.809
60.64000 130.976
60.68000 132.606
60.72000 145.296
60.76000 137.884
60.80000 127.896
60.84000 140.802
60.88000 134.009
60.92000 136.770
60.96000 131.791
61.00000 138.469
61.04000 133.070
61.08000 147.467
61.12000 139.467
61.16000 132.464
61.20000 133.080
61.24000 147.082
61.28000 134.084
61.32000 147.052
61.36000 133.128
61.40000 141.640
61.44000 136.998
61.48000 147.149
61.52000 173.603
61.56000 206.376
61.60000 274.439
61.64000 300.705
61.68000 293.115
61.72000 316.451
61.76000 306.710
61.80000 237.963
61.84000 186.119
61.88000 166.749
61.92000 146.597
61.96000 141.068
62.00000 140.827
62.04000 142.958
62.08000 140.715
62.12000 143.107
62.16000 159.774
62.20000 140.655
62.24000 146.354
62.28000 143.444
62.32000 139.467
62.36000 135.733
62.40000 145.182
62.44000 148.135
62.48000 154.135
62.52000 140.945
62.56000 148.275
62.60000 155.059
62.64000 151.632
62.68000 144.457
62.72000 153.037
62.76000 153.308
62.80000 133.109
62.84000 142.180
62.88000 138.266
62.92000 150.894
62.96000 151.206
63.00000 153.598
63.04000 159.905
63.08000 156.512
63.12000 156.335
63.16000 149.466
63.20000 142.630
63.24000 151.628
63.28000 149.749
63.32000 142.570
63.36000 154.676
63.40000 147.239
63.44000 151.494
63.48000 145.160
63.52000 152.744
63.56000 154.975
63.60000 144.400
63.64000 158.802
63.68000 147.905
63.72000 159.429
63.76000 157.545
63.80000 156.455
63.84000 152.874
63.88000 162.654
63.92000 157.497
63.96000 156.295
64.00000 160.663
64.04000 166.379
64.08000 161.377
64.12000 156.114
64.16000 157.270
64.20000 162.020
64.24000 164.463
64.28000 148.079
64.32000 168.871
64.36000 171.230
64.40000 162.042
64.44000 171.241
64.48000 172.977
64.52000 176.318
64.56000 172.670
64.60000 182.523
64.64000 175.657
64.68000 187.184
64.72000 179.430
64.76000 185.501
64.80000 190.839
64.84000 187.617
64.88000 195.319
64.92000 196.455
64.96000 201.785
65.00000 192.289
65.04000 194.953
65.08000 199.573
65.12000 233.813
65.16000 230.085
65.20000 226.685
65.24000 243.005
65.28000 259.518
65.32000 274.259
65.36000 300.961
65.40000 341.155
65.44000 368.090
65.48000 380.967
65.52000 412.545
65.56000 448.696
65.60000 456.111
65.64000 493.933
65.68000 547.297
65.72000 728.106
65.76000 951.708
65.80000 1156.632
65.84000 1269.133
65.88000 1297.638
65.92000 1265.695
65.96000 1125.348
66.00000 813.817
66.04000 559.484
66.08000 423.558
66.12000 366.576
66.16000 347.563
66.20000 348.305
66.24000 348.239
66.28000 385.780
66.32000 435.786
66.36000 469.754
66.40000 504.379
66.44000 490.230
66.48000 497.218
66.52000 461.070
66.56000 414.307
66.60000 365.593
66.64000 339.797
66.68000 320.469
66.72000 336.203
66.76000 335.558
66.80000 315.851
66.84000 342.509
66.88000 343.142
66.92000 359.111
66.96000 371.181
67.00000 353.665
67.04000 347.031
67.08000 381.027
67.12000 369.421
67.16000 389.645
67.20000 392.640
67.24000 389.512
67.28000 411.334
67.32000 430.031
67.36000 414.394
67.40000 427.556
67.44000 428.165
67.48000 424.723
67.52000 445.018
67.56000 460.254
67.60000 462.806
67.64000 477.954
67.68000 491.959
67.72000 514.225
67.76000 503.517
67.80000 518.192
67.84000 534.973
67.88000 532.327
67.92000 554.770
67.96000 527.684
68.00000 557.846
68.04000 559.787
68.08000 597.133
68.12000 593.816
68.16000 626.916
68.20000 620.857
68.24000 672.853
68.28000 670.615
68.32000 687.634
68.36000 713.012
68.40000 751.433
68.44000 794.122
68.48000 836.392
68.52000 867.532
68.56000 961.327
68.60000 1081.271
68.64000 1251.085
68.68000 1513.536
68.72000 1797.096
68.76000 2060.449
68.80000 2353.307
68.84000 2819.852
68.88000 3778.235
68.92000 6613.719
68.96000 15331.520
69.00000 34851.414
69.04000 56729.980
69.08000 69395.945
69.12000 72315.797
69.16000 75337.031
69.20000 75124.547
69.24000 64220.707
69.28000 48674.859
69.32000 40044.395
69.36000 35851.223
69.40000 29900.441
69.44000 18844.959
69.48000 8775.887
69.52000 4037.735
69.56000 2434.008
69.60000 1769.573
69.64000 1463.210
69.68000 1267.921
69.72000 1146.531
69.76000 1034.232
69.80000 948.220
69.84000 892.843
69.88000 864.320
69.92000 823.575
69.96000 761.915
70.00000 734.231