File: XRD/22-09-2025 Dep 2/XY Data/BTO_Mapping_Theta2Theta_22-09-2025_001_53_-4-450_-19-499.xy
20.00000 575.593
20.04000 569.450
20.08000 583.947
20.12000 560.144
20.16000 563.443
20.20000 571.084
20.24000 550.948
20.28000 569.844
20.32000 558.117
20.36000 556.426
20.40000 579.160
20.44000 562.065
20.48000 564.380
20.52000 555.653
20.56000 562.069
20.60000 557.836
20.64000 556.055
20.68000 549.161
20.72000 561.183
20.76000 552.917
20.80000 570.458
20.84000 553.944
20.88000 556.854
20.92000 567.273
20.96000 573.131
21.00000 558.257
21.04000 566.163
21.08000 569.770
21.12000 554.907
21.16000 557.777
21.20000 545.272
21.24000 564.941
21.28000 548.433
21.32000 565.406
21.36000 553.022
21.40000 574.029
21.44000 557.080
21.48000 555.302
21.52000 551.590
21.56000 554.082
21.60000 559.109
21.64000 569.932
21.68000 603.041
21.72000 591.627
21.76000 619.216
21.80000 630.760
21.84000 659.849
21.88000 719.030
21.92000 725.663
21.96000 785.872
22.00000 818.216
22.04000 834.361
22.08000 832.603
22.12000 836.022
22.16000 784.501
22.20000 793.795
22.24000 732.802
22.28000 705.576
22.32000 657.252
22.36000 636.283
22.40000 627.744
22.44000 596.498
22.48000 593.566
22.52000 571.991
22.56000 562.750
22.60000 543.616
22.64000 521.570
22.68000 530.414
22.72000 554.667
22.76000 519.701
22.80000 513.117
22.84000 535.703
22.88000 554.475
22.92000 528.211
22.96000 537.099
23.00000 541.997
23.04000 524.093
23.08000 513.474
23.12000 520.265
23.16000 530.721
23.20000 514.526
23.24000 505.408
23.28000 511.808
23.32000 508.523
23.36000 517.499
23.40000 503.267
23.44000 505.029
23.48000 502.253
23.52000 496.945
23.56000 499.792
23.60000 506.141
23.64000 505.878
23.68000 517.094
23.72000 492.092
23.76000 510.902
23.80000 511.389
23.84000 509.647
23.88000 491.747
23.92000 503.781
23.96000 513.838
24.00000 504.284
24.04000 499.235
24.08000 476.836
24.12000 492.583
24.16000 509.260
24.20000 490.323
24.24000 504.914
24.28000 503.281
24.32000 488.241
24.36000 495.417
24.40000 484.839
24.44000 488.318
24.48000 496.988
24.52000 483.840
24.56000 506.195
24.60000 504.256
24.64000 484.745
24.68000 505.490
24.72000 482.557
24.76000 486.890
24.80000 491.078
24.84000 492.680
24.88000 497.675
24.92000 460.819
24.96000 487.175
25.00000 493.767
25.04000 478.950
25.08000 468.829
25.12000 483.602
25.16000 483.689
25.20000 495.615
25.24000 460.291
25.28000 470.016
25.32000 491.296
25.36000 487.748
25.40000 491.519
25.44000 483.868
25.48000 486.160
25.52000 480.051
25.56000 477.970
25.60000 482.327
25.64000 481.704
25.68000 467.187
25.72000 468.507
25.76000 451.815
25.80000 467.215
25.84000 457.417
25.88000 465.321
25.92000 459.302
25.96000 485.606
26.00000 486.364
26.04000 466.248
26.08000 460.328
26.12000 460.166
26.16000 450.762
26.20000 454.475
26.24000 458.281
26.28000 443.299
26.32000 468.006
26.36000 460.879
26.40000 458.158
26.44000 453.957
26.48000 463.764
26.52000 449.174
26.56000 454.596
26.60000 448.630
26.64000 453.441
26.68000 460.491
26.72000 455.890
26.76000 457.441
26.80000 445.894
26.84000 464.286
26.88000 449.068
26.92000 440.897
26.96000 456.233
27.00000 461.149
27.04000 459.776
27.08000 444.285
27.12000 453.634
27.16000 447.813
27.20000 452.638
27.24000 441.432
27.28000 446.999
27.32000 447.731
27.36000 447.829
27.40000 438.308
27.44000 441.295
27.48000 443.541
27.52000 463.116
27.56000 436.789
27.60000 436.703
27.64000 415.825
27.68000 436.708
27.72000 443.619
27.76000 452.600
27.80000 436.336
27.84000 434.774
27.88000 433.009
27.92000 469.192
27.96000 427.418
28.00000 428.430
28.04000 427.196
28.08000 443.494
28.12000 447.517
28.16000 432.220
28.20000 433.337
28.24000 424.677
28.28000 437.489
28.32000 444.719
28.36000 430.704
28.40000 435.441
28.44000 432.962
28.48000 424.602
28.52000 435.517
28.56000 431.258
28.60000 445.715
28.64000 409.963
28.68000 428.009
28.72000 410.098
28.76000 421.949
28.80000 428.499
28.84000 426.192
28.88000 406.057
28.92000 425.859
28.96000 412.329
29.00000 425.677
29.04000 425.468
29.08000 416.626
29.12000 411.978
29.16000 425.098
29.20000 423.638
29.24000 436.506
29.28000 421.362
29.32000 418.404
29.36000 405.819
29.40000 426.161
29.44000 414.603
29.48000 417.341
29.52000 416.518
29.56000 414.462
29.60000 420.751
29.64000 421.083
29.68000 426.790
29.72000 408.696
29.76000 414.426
29.80000 433.071
29.84000 446.590
29.88000 424.905
29.92000 432.524
29.96000 438.011
30.00000 466.262
30.04000 444.594
30.08000 456.599
30.12000 456.559
30.16000 432.337
30.20000 453.523
30.24000 457.942
30.28000 461.122
30.32000 436.496
30.36000 421.055
30.40000 427.963
30.44000 444.190
30.48000 441.798
30.52000 450.837
30.56000 457.356
30.60000 450.838
30.64000 441.172
30.68000 446.119
30.72000 455.264
30.76000 489.675
30.80000 480.457
30.84000 504.279
30.88000 514.355
30.92000 539.434
30.96000 539.997
31.00000 609.349
31.04000 673.914
31.08000 757.689
31.12000 943.747
31.16000 1195.443
31.20000 1533.999
31.24000 1930.875
31.28000 2447.692
31.32000 2892.148
31.36000 3266.466
31.40000 3444.606
31.44000 3353.534
31.48000 3120.145
31.52000 2726.122
31.56000 2226.790
31.60000 1832.071
31.64000 1462.071
31.68000 1151.910
31.72000 934.377
31.76000 805.077
31.80000 697.846
31.84000 610.507
31.88000 570.950
31.92000 516.820
31.96000 499.297
32.00000 466.389
32.04000 439.631
32.08000 450.214
32.12000 449.603
32.16000 430.004
32.20000 450.111
32.24000 417.459
32.28000 419.475
32.32000 416.000
32.36000 419.659
32.40000 415.818
32.44000 395.217
32.48000 397.409
32.52000 405.971
32.56000 409.716
32.60000 402.735
32.64000 419.143
32.68000 411.502
32.72000 412.984
32.76000 399.275
32.80000 402.174
32.84000 410.969
32.88000 437.494
32.92000 452.773
32.96000 454.407
33.00000 458.733
33.04000 438.157
33.08000 409.359
33.12000 379.573
33.16000 365.995
33.20000 350.440
33.24000 363.953
33.28000 344.638
33.32000 351.323
33.36000 360.938
33.40000 349.277
33.44000 357.519
33.48000 360.187
33.52000 346.820
33.56000 361.592
33.60000 355.777
33.64000 349.287
33.68000 350.574
33.72000 355.474
33.76000 342.210
33.80000 330.657
33.84000 351.322
33.88000 338.185
33.92000 349.812
33.96000 353.009
34.00000 346.115
34.04000 335.813
34.08000 347.695
34.12000 332.636
34.16000 336.858
34.20000 358.353
34.24000 338.239
34.28000 330.475
34.32000 325.207
34.36000 336.602
34.40000 332.493
34.44000 341.433
34.48000 349.074
34.52000 331.220
34.56000 325.471
34.60000 330.148
34.64000 336.562
34.68000 329.958
34.72000 341.733
34.76000 315.397
34.80000 342.066
34.84000 333.659
34.88000 325.757
34.92000 329.965
34.96000 338.962
35.00000 324.865
35.04000 351.037
35.08000 341.181
35.12000 312.721
35.16000 323.384
35.20000 314.711
35.24000 314.526
35.28000 312.379
35.32000 329.769
35.36000 325.749
35.40000 307.945
35.44000 305.997
35.48000 315.109
35.52000 314.884
35.56000 324.076
35.60000 312.893
35.64000 318.698
35.68000 314.614
35.72000 302.876
35.76000 323.606
35.80000 305.033
35.84000 316.406
35.88000 326.475
35.92000 309.449
35.96000 310.527
36.00000 320.485
36.04000 318.512
36.08000 318.199
36.12000 301.511
36.16000 305.597
36.20000 309.714
36.24000 299.243
36.28000 294.155
36.32000 312.094
36.36000 321.414
36.40000 306.298
36.44000 303.891
36.48000 305.787
36.52000 313.391
36.56000 317.748
36.60000 305.491
36.64000 293.556
36.68000 310.158
36.72000 314.166
36.76000 306.932
36.80000 298.788
36.84000 298.143
36.88000 304.387
36.92000 308.316
36.96000 315.126
37.00000 309.340
37.04000 295.644
37.08000 305.981
37.12000 306.744
37.16000 298.287
37.20000 309.739
37.24000 319.116
37.28000 310.764
37.32000 304.160
37.36000 309.524
37.40000 301.484
37.44000 303.134
37.48000 297.863
37.52000 302.967
37.56000 284.629
37.60000 306.847
37.64000 297.891
37.68000 307.015
37.72000 289.619
37.76000 281.461
37.80000 289.267
37.84000 293.275
37.88000 292.598
37.92000 309.283
37.96000 296.933
38.00000 288.603
38.04000 296.314
38.08000 303.882
38.12000 316.569
38.16000 322.117
38.20000 313.683
38.24000 326.978
38.28000 333.224
38.32000 351.418
38.36000 363.603
38.40000 368.579
38.44000 415.978
38.48000 460.084
38.52000 537.276
38.56000 633.316
38.60000 754.815
38.64000 840.832
38.68000 901.252
38.72000 965.756
38.76000 939.142
38.80000 899.691
38.84000 783.591
38.88000 686.093
38.92000 587.054
38.96000 515.900
39.00000 423.683
39.04000 392.461
39.08000 357.862
39.12000 339.241
39.16000 331.685
39.20000 329.958
39.24000 299.223
39.28000 301.075
39.32000 305.984
39.36000 292.273
39.40000 296.343
39.44000 282.700
39.48000 278.751
39.52000 298.723
39.56000 291.663
39.60000 282.351
39.64000 278.803
39.68000 274.651
39.72000 260.311
39.76000 284.092
39.80000 264.737
39.84000 273.678
39.88000 279.666
39.92000 285.873
39.96000 257.615
40.00000 265.764
40.04000 261.174
40.08000 263.513
40.12000 253.190
40.16000 265.924
40.20000 259.831
40.24000 263.486
40.28000 266.876
40.32000 264.135
40.36000 263.081
40.40000 248.184
40.44000 254.496
40.48000 269.087
40.52000 254.999
40.56000 273.199
40.60000 259.041
40.64000 259.312
40.68000 254.897
40.72000 250.155
40.76000 264.695
40.80000 256.909
40.84000 248.359
40.88000 260.210
40.92000 258.321
40.96000 246.585
41.00000 255.280
41.04000 249.534
41.08000 250.566
41.12000 251.256
41.16000 257.367
41.20000 253.380
41.24000 250.138
41.28000 237.857
41.32000 247.924
41.36000 260.880
41.40000 254.445
41.44000 245.726
41.48000 245.535
41.52000 249.688
41.56000 245.651
41.60000 249.368
41.64000 257.180
41.68000 239.618
41.72000 245.811
41.76000 247.286
41.80000 250.521
41.84000 240.271
41.88000 256.363
41.92000 240.876
41.96000 228.490
42.00000 245.389
42.04000 237.304
42.08000 244.762
42.12000 223.784
42.16000 230.319
42.20000 242.913
42.24000 241.662
42.28000 243.201
42.32000 238.490
42.36000 237.163
42.40000 234.651
42.44000 225.242
42.48000 240.055
42.52000 224.331
42.56000 232.157
42.60000 236.073
42.64000 235.011
42.68000 235.442
42.72000 233.544
42.76000 232.374
42.80000 239.149
42.84000 224.038
42.88000 255.888
42.92000 238.164
42.96000 229.124
43.00000 242.927
43.04000 227.551
43.08000 229.044
43.12000 231.015
43.16000 226.949
43.20000 229.757
43.24000 228.321
43.28000 220.002
43.32000 232.111
43.36000 238.189
43.40000 228.875
43.44000 226.124
43.48000 219.570
43.52000 237.605
43.56000 228.576
43.60000 210.784
43.64000 225.303
43.68000 235.504
43.72000 224.600
43.76000 225.915
43.80000 224.637
43.84000 229.712
43.88000 226.271
43.92000 215.312
43.96000 224.275
44.00000 231.677
44.04000 232.918
44.08000 229.820
44.12000 212.958
44.16000 225.107
44.20000 216.382
44.24000 224.874
44.28000 233.488
44.32000 245.080
44.36000 233.626
44.40000 231.982
44.44000 240.753
44.48000 239.766
44.52000 229.256
44.56000 251.424
44.60000 252.355
44.64000 250.518
44.68000 265.247
44.72000 279.065
44.76000 298.903
44.80000 312.276
44.84000 338.867
44.88000 356.629
44.92000 377.508
44.96000 417.323
45.00000 449.807
45.04000 459.487
45.08000 464.792
45.12000 457.953
45.16000 439.113
45.20000 427.688
45.24000 404.053
45.28000 388.982
45.32000 371.203
45.36000 351.286
45.40000 336.652
45.44000 324.792
45.48000 292.198
45.52000 293.097
45.56000 284.840
45.60000 271.085
45.64000 278.437
45.68000 260.876
45.72000 251.901
45.76000 241.955
45.80000 260.072
45.84000 252.164
45.88000 242.784
45.92000 230.789
45.96000 232.944
46.00000 221.445
46.04000 230.668
46.08000 217.362
46.12000 226.346
46.16000 216.545
46.20000 194.285
46.24000 214.535
46.28000 219.057
46.32000 208.162
46.36000 218.910
46.40000 202.589
46.44000 206.748
46.48000 220.107
46.52000 195.989
46.56000 206.593
46.60000 204.186
46.64000 205.180
46.68000 191.129
46.72000 207.634
46.76000 193.409
46.80000 205.374
46.84000 194.437
46.88000 199.812
46.92000 203.333
46.96000 192.334
47.00000 194.721
47.04000 199.075
47.08000 198.577
47.12000 200.123
47.16000 201.295
47.20000 195.814
47.24000 195.171
47.28000 187.694
47.32000 194.976
47.36000 195.881
47.40000 188.756
47.44000 184.402
47.48000 194.607
47.52000 185.001
47.56000 181.327
47.60000 190.193
47.64000 193.997
47.68000 193.154
47.72000 186.223
47.76000 177.144
47.80000 193.833
47.84000 194.628
47.88000 185.632
47.92000 184.417
47.96000 191.999
48.00000 198.603
48.04000 184.375
48.08000 182.790
48.12000 177.737
48.16000 187.684
48.20000 188.011
48.24000 184.248
48.28000 175.751
48.32000 182.716
48.36000 191.933
48.40000 185.449
48.44000 180.635
48.48000 181.130
48.52000 181.573
48.56000 182.005
48.60000 179.847
48.64000 169.905
48.68000 178.516
48.72000 184.917
48.76000 180.867
48.80000 179.588
48.84000 183.618
48.88000 179.141
48.92000 186.604
48.96000 176.689
49.00000 183.641
49.04000 178.848
49.08000 187.861
49.12000 174.455
49.16000 184.100
49.20000 187.491
49.24000 178.767
49.28000 177.815
49.32000 170.652
49.36000 175.910
49.40000 182.875
49.44000 166.452
49.48000 186.510
49.52000 178.172
49.56000 171.153
49.60000 170.645
49.64000 174.855
49.68000 178.801
49.72000 182.400
49.76000 176.946
49.80000 173.513
49.84000 188.575
49.88000 185.194
49.92000 171.395
49.96000 175.330
50.00000 174.902
50.04000 182.391
50.08000 176.631
50.12000 183.765
50.16000 188.079
50.20000 179.633
50.24000 188.472
50.28000 189.714
50.32000 179.252
50.36000 183.076
50.40000 199.820
50.44000 201.392
50.48000 211.742
50.52000 223.016
50.56000 229.523
50.60000 250.924
50.64000 228.169
50.68000 269.406
50.72000 267.298
50.76000 266.660
50.80000 258.121
50.84000 253.542
50.88000 256.982
50.92000 235.946
50.96000 230.993
51.00000 219.985
51.04000 223.006
51.08000 212.866
51.12000 191.255
51.16000 183.927
51.20000 189.173
51.24000 173.668
51.28000 188.054
51.32000 180.877
51.36000 169.685
51.40000 169.815
51.44000 176.279
51.48000 177.349
51.52000 171.912
51.56000 174.778
51.60000 169.076
51.64000 172.448
51.68000 163.636
51.72000 161.693
51.76000 170.834
51.80000 166.087
51.84000 169.882
51.88000 156.780
51.92000 155.960
51.96000 174.617
52.00000 163.762
52.04000 174.161
52.08000 164.824
52.12000 162.263
52.16000 171.258
52.20000 161.816
52.24000 161.910
52.28000 164.451
52.32000 160.680
52.36000 167.324
52.40000 162.957
52.44000 160.931
52.48000 170.499
52.52000 159.197
52.56000 154.847
52.60000 153.576
52.64000 164.609
52.68000 155.933
52.72000 161.040
52.76000 159.844
52.80000 160.321
52.84000 159.350
52.88000 170.934
52.92000 158.102
52.96000 156.209
53.00000 160.235
53.04000 164.284
53.08000 170.234
53.12000 165.237
53.16000 161.952
53.20000 158.033
53.24000 165.092
53.28000 162.740
53.32000 159.115
53.36000 168.675
53.40000 159.861
53.44000 153.419
53.48000 162.058
53.52000 166.112
53.56000 161.475
53.60000 157.354
53.64000 156.269
53.68000 161.673
53.72000 157.811
53.76000 157.795
53.80000 148.912
53.84000 152.682
53.88000 164.134
53.92000 162.825
53.96000 163.562
54.00000 159.229
54.04000 155.343
54.08000 150.502
54.12000 151.198
54.16000 141.157
54.20000 162.084
54.24000 158.939
54.28000 155.715
54.32000 162.237
54.36000 156.181
54.40000 155.684
54.44000 152.554
54.48000 161.230
54.52000 161.324
54.56000 158.025
54.60000 166.413
54.64000 172.464
54.68000 166.390
54.72000 158.570
54.76000 154.155
54.80000 161.289
54.84000 161.905
54.88000 155.914
54.92000 166.484
54.96000 164.263
55.00000 163.675
55.04000 153.104
55.08000 170.662
55.12000 164.645
55.16000 161.276
55.20000 172.305
55.24000 165.793
55.28000 170.210
55.32000 180.712
55.36000 174.996
55.40000 187.698
55.44000 178.749
55.48000 197.490
55.52000 194.392
55.56000 215.905
55.60000 252.372
55.64000 256.451
55.68000 290.902
55.72000 324.385
55.76000 353.218
55.80000 416.154
55.84000 463.547
55.88000 521.773
55.92000 550.671
55.96000 578.953
56.00000 567.171
56.04000 525.665
56.08000 534.239
56.12000 472.197
56.16000 439.661
56.20000 391.848
56.24000 351.047
56.28000 309.965
56.32000 273.966
56.36000 271.832
56.40000 255.396
56.44000 230.623
56.48000 213.106
56.52000 204.675
56.56000 191.372
56.60000 185.475
56.64000 168.658
56.68000 180.436
56.72000 169.274
56.76000 167.162
56.80000 166.433
56.84000 159.998
56.88000 169.746
56.92000 162.666
56.96000 166.397
57.00000 159.709
57.04000 153.302
57.08000 156.708
57.12000 152.847
57.16000 136.911
57.20000 145.000
57.24000 149.930
57.28000 161.968
57.32000 145.417
57.36000 145.729
57.40000 142.760
57.44000 141.137
57.48000 148.433
57.52000 147.005
57.56000 147.269
57.60000 148.836
57.64000 140.498
57.68000 130.746
57.72000 138.834
57.76000 148.091
57.80000 146.242
57.84000 146.167
57.88000 136.372
57.92000 147.929
57.96000 143.161
58.00000 144.242
58.04000 152.114
58.08000 150.500
58.12000 140.395
58.16000 144.196
58.20000 135.499
58.24000 146.841
58.28000 132.495
58.32000 141.739
58.36000 146.810
58.40000 153.637
58.44000 139.582
58.48000 140.450
58.52000 133.477
58.56000 136.982
58.60000 139.603
58.64000 130.927
58.68000 124.221
58.72000 138.403
58.76000 135.418
58.80000 125.820
58.84000 143.533
58.88000 138.031
58.92000 133.242
58.96000 143.708
59.00000 139.963
59.04000 128.543
59.08000 138.121
59.12000 140.497
59.16000 136.178
59.20000 142.070
59.24000 131.146
59.28000 119.641
59.32000 131.841
59.36000 135.825
59.40000 128.842
59.44000 139.138
59.48000 135.060
59.52000 136.985
59.56000 146.602
59.60000 146.335
59.64000 142.537
59.68000 121.996
59.72000 136.507
59.76000 131.212
59.80000 140.805
59.84000 133.015
59.88000 134.735
59.92000 138.026
59.96000 137.208
60.00000 132.046
60.04000 135.258
60.08000 136.569
60.12000 136.017
60.16000 133.331
60.20000 136.116
60.24000 135.953
60.28000 135.926
60.32000 139.335
60.36000 138.053
60.40000 142.784
60.44000 135.747
60.48000 141.858
60.52000 144.750
60.56000 136.457
60.60000 136.214
60.64000 139.688
60.68000 135.737
60.72000 115.988
60.76000 150.457
60.80000 139.909
60.84000 125.803
60.88000 137.274
60.92000 121.184
60.96000 138.816
61.00000 132.702
61.04000 133.597
61.08000 138.417
61.12000 145.247
61.16000 133.908
61.20000 134.889
61.24000 136.685
61.28000 142.390
61.32000 144.981
61.36000 142.596
61.40000 140.058
61.44000 138.195
61.48000 146.546
61.52000 179.891
61.56000 229.179
61.60000 295.944
61.64000 331.300
61.68000 354.537
61.72000 333.863
61.76000 330.180
61.80000 274.344
61.84000 202.829
61.88000 170.703
61.92000 159.271
61.96000 150.886
62.00000 150.507
62.04000 148.323
62.08000 152.368
62.12000 142.994
62.16000 147.948
62.20000 141.783
62.24000 144.110
62.28000 147.503
62.32000 149.545
62.36000 160.110
62.40000 147.923
62.44000 141.555
62.48000 148.870
62.52000 153.572
62.56000 161.736
62.60000 148.160
62.64000 156.798
62.68000 145.560
62.72000 140.389
62.76000 140.700
62.80000 149.067
62.84000 142.698
62.88000 153.924
62.92000 139.517
62.96000 152.836
63.00000 148.795
63.04000 145.565
63.08000 147.398
63.12000 133.319
63.16000 148.444
63.20000 149.935
63.24000 149.642
63.28000 151.202
63.32000 152.008
63.36000 145.073
63.40000 151.319
63.44000 156.092
63.48000 142.248
63.52000 140.241
63.56000 149.133
63.60000 158.844
63.64000 160.851
63.68000 154.742
63.72000 155.766
63.76000 172.981
63.80000 153.920
63.84000 173.975
63.88000 156.986
63.92000 157.590
63.96000 160.850
64.00000 161.977
64.04000 157.009
64.08000 165.231
64.12000 161.691
64.16000 157.955
64.20000 159.956
64.24000 164.886
64.28000 166.619
64.32000 179.559
64.36000 168.674
64.40000 168.837
64.44000 174.207
64.48000 166.529
64.52000 169.211
64.56000 184.242
64.60000 173.519
64.64000 172.144
64.68000 180.390
64.72000 178.916
64.76000 191.083
64.80000 177.973
64.84000 186.709
64.88000 185.830
64.92000 187.402
64.96000 197.727
65.00000 208.198
65.04000 217.273
65.08000 219.657
65.12000 208.609
65.16000 220.475
65.20000 224.674
65.24000 238.671
65.28000 273.565
65.32000 288.855
65.36000 289.701
65.40000 320.034
65.44000 374.723
65.48000 382.933
65.52000 401.151
65.56000 418.505
65.60000 464.908
65.64000 503.075
65.68000 578.848
65.72000 748.504
65.76000 1025.387
65.80000 1289.502
65.84000 1422.219
65.88000 1474.484
65.92000 1405.947
65.96000 1281.272
66.00000 923.241
66.04000 635.532
66.08000 450.337
66.12000 386.114
66.16000 374.606
66.20000 372.050
66.24000 394.308
66.28000 405.362
66.32000 451.780
66.36000 497.542
66.40000 523.813
66.44000 551.356
66.48000 550.934
66.52000 492.397
66.56000 434.197
66.60000 411.212
66.64000 368.173
66.68000 354.303
66.72000 356.856
66.76000 340.068
66.80000 356.568
66.84000 355.882
66.88000 361.273
66.92000 364.621
66.96000 365.970
67.00000 400.547
67.04000 393.274
67.08000 390.292
67.12000 390.355
67.16000 404.094
67.20000 405.686
67.24000 411.535
67.28000 433.566
67.32000 440.469
67.36000 449.494
67.40000 439.876
67.44000 449.542
67.48000 467.378
67.52000 477.642
67.56000 488.649
67.60000 500.258
67.64000 500.885
67.68000 494.064
67.72000 519.590
67.76000 520.458
67.80000 541.883
67.84000 535.667
67.88000 570.306
67.92000 580.420
67.96000 588.700
68.00000 608.789
68.04000 598.865
68.08000 622.404
68.12000 638.789
68.16000 674.770
68.20000 675.161
68.24000 700.589
68.28000 708.369
68.32000 731.325
68.36000 782.588
68.40000 818.424
68.44000 840.795
68.48000 913.268
68.52000 948.960
68.56000 1021.946
68.60000 1156.492
68.64000 1389.466
68.68000 1669.798
68.72000 1929.492
68.76000 2291.613
68.80000 2682.170
68.84000 3323.098
68.88000 4460.726
68.92000 7729.616
68.96000 17092.992
69.00000 38103.371
69.04000 63424.934
69.08000 78626.766
69.12000 82829.688
69.16000 86088.742
69.20000 86905.664
69.24000 75059.602
69.28000 58253.195
69.32000 47082.813
69.36000 41654.559
69.40000 34979.465
69.44000 22798.715
69.48000 11289.931
69.52000 5214.495
69.56000 2923.246
69.60000 2069.425
69.64000 1669.503
69.68000 1417.237
69.72000 1243.511
69.76000 1117.965
69.80000 1027.916
69.84000 981.039
69.88000 889.942
69.92000 876.015
69.96000 847.918
70.00000 794.685