File: XRD/22-09-2025 Dep 2/XY Data/BTO_Mapping_Theta2Theta_22-09-2025_001_43_-18-019_-8-678.xy
20.00000 592.927
20.04000 574.267
20.08000 566.865
20.12000 555.472
20.16000 564.221
20.20000 581.879
20.24000 573.796
20.28000 577.039
20.32000 585.108
20.36000 565.663
20.40000 565.652
20.44000 537.115
20.48000 557.164
20.52000 549.419
20.56000 571.702
20.60000 562.193
20.64000 550.416
20.68000 564.566
20.72000 584.110
20.76000 567.100
20.80000 567.501
20.84000 567.883
20.88000 561.572
20.92000 565.271
20.96000 564.067
21.00000 582.017
21.04000 557.292
21.08000 559.880
21.12000 561.925
21.16000 551.497
21.20000 555.061
21.24000 561.598
21.28000 566.157
21.32000 578.194
21.36000 555.063
21.40000 581.228
21.44000 565.226
21.48000 583.910
21.52000 574.575
21.56000 570.816
21.60000 571.261
21.64000 594.417
21.68000 591.078
21.72000 625.124
21.76000 669.716
21.80000 683.382
21.84000 725.215
21.88000 765.170
21.92000 845.607
21.96000 872.364
22.00000 899.358
22.04000 891.786
22.08000 873.993
22.12000 860.896
22.16000 829.099
22.20000 765.008
22.24000 725.556
22.28000 689.224
22.32000 648.815
22.36000 638.295
22.40000 606.761
22.44000 607.964
22.48000 592.291
22.52000 571.983
22.56000 552.214
22.60000 562.112
22.64000 547.869
22.68000 548.879
22.72000 529.696
22.76000 514.236
22.80000 546.467
22.84000 526.155
22.88000 521.383
22.92000 522.965
22.96000 529.888
23.00000 517.128
23.04000 519.206
23.08000 500.476
23.12000 520.928
23.16000 516.742
23.20000 519.292
23.24000 534.747
23.28000 510.590
23.32000 520.094
23.36000 506.437
23.40000 509.479
23.44000 496.547
23.48000 513.268
23.52000 507.130
23.56000 500.325
23.60000 503.759
23.64000 520.407
23.68000 487.918
23.72000 492.452
23.76000 495.703
23.80000 495.832
23.84000 488.103
23.88000 505.861
23.92000 511.035
23.96000 503.817
24.00000 496.982
24.04000 497.171
24.08000 513.078
24.12000 496.735
24.16000 501.594
24.20000 495.075
24.24000 505.619
24.28000 488.760
24.32000 489.042
24.36000 500.528
24.40000 464.297
24.44000 493.322
24.48000 469.997
24.52000 489.725
24.56000 469.236
24.60000 488.242
24.64000 496.489
24.68000 467.680
24.72000 474.070
24.76000 494.272
24.80000 470.437
24.84000 487.631
24.88000 482.301
24.92000 470.182
24.96000 478.417
25.00000 495.345
25.04000 468.221
25.08000 473.752
25.12000 490.338
25.16000 482.130
25.20000 483.197
25.24000 481.517
25.28000 466.413
25.32000 467.545
25.36000 467.134
25.40000 468.264
25.44000 487.040
25.48000 478.780
25.52000 468.400
25.56000 463.723
25.60000 454.373
25.64000 474.261
25.68000 469.360
25.72000 469.678
25.76000 476.523
25.80000 471.546
25.84000 487.433
25.88000 468.522
25.92000 484.839
25.96000 468.303
26.00000 460.144
26.04000 488.489
26.08000 479.250
26.12000 461.417
26.16000 455.577
26.20000 467.296
26.24000 484.524
26.28000 472.766
26.32000 459.466
26.36000 446.091
26.40000 446.584
26.44000 453.943
26.48000 446.077
26.52000 472.427
26.56000 457.597
26.60000 459.198
26.64000 464.141
26.68000 457.168
26.72000 459.852
26.76000 451.020
26.80000 453.534
26.84000 448.295
26.88000 458.720
26.92000 452.754
26.96000 449.149
27.00000 456.343
27.04000 451.122
27.08000 446.433
27.12000 451.064
27.16000 454.775
27.20000 463.920
27.24000 431.963
27.28000 450.682
27.32000 436.909
27.36000 469.260
27.40000 459.256
27.44000 448.415
27.48000 453.159
27.52000 433.367
27.56000 440.154
27.60000 443.583
27.64000 415.295
27.68000 441.312
27.72000 439.577
27.76000 439.395
27.80000 438.967
27.84000 441.098
27.88000 448.219
27.92000 457.052
27.96000 424.109
28.00000 429.911
28.04000 428.343
28.08000 433.211
28.12000 427.459
28.16000 432.886
28.20000 442.931
28.24000 435.698
28.28000 439.099
28.32000 445.648
28.36000 426.346
28.40000 443.102
28.44000 442.013
28.48000 430.772
28.52000 415.336
28.56000 427.746
28.60000 405.447
28.64000 427.400
28.68000 430.496
28.72000 436.282
28.76000 434.750
28.80000 422.519
28.84000 427.893
28.88000 440.642
28.92000 429.551
28.96000 430.993
29.00000 429.602
29.04000 423.972
29.08000 451.620
29.12000 421.826
29.16000 398.730
29.20000 412.500
29.24000 426.856
29.28000 434.959
29.32000 429.396
29.36000 407.900
29.40000 420.530
29.44000 431.446
29.48000 414.203
29.52000 399.838
29.56000 421.075
29.60000 427.850
29.64000 435.548
29.68000 417.573
29.72000 414.827
29.76000 421.695
29.80000 429.067
29.84000 425.841
29.88000 427.742
29.92000 433.037
29.96000 447.408
30.00000 446.947
30.04000 443.457
30.08000 453.045
30.12000 458.624
30.16000 446.014
30.20000 432.389
30.24000 439.051
30.28000 420.397
30.32000 426.692
30.36000 436.801
30.40000 423.910
30.44000 414.615
30.48000 431.209
30.52000 429.762
30.56000 451.412
30.60000 438.228
30.64000 459.960
30.68000 447.777
30.72000 432.052
30.76000 442.020
30.80000 460.263
30.84000 480.538
30.88000 489.355
30.92000 505.204
30.96000 546.482
31.00000 613.985
31.04000 696.641
31.08000 814.799
31.12000 1020.568
31.16000 1304.002
31.20000 1765.039
31.24000 2244.737
31.28000 2737.652
31.32000 3178.260
31.36000 3427.539
31.40000 3562.637
31.44000 3372.501
31.48000 2959.642
31.52000 2492.827
31.56000 2004.696
31.60000 1585.626
31.64000 1227.177
31.68000 998.508
31.72000 812.573
31.76000 713.607
31.80000 610.409
31.84000 561.981
31.88000 522.391
31.92000 498.519
31.96000 468.143
32.00000 448.253
32.04000 448.924
32.08000 429.731
32.12000 414.086
32.16000 414.991
32.20000 434.486
32.24000 414.812
32.28000 406.593
32.32000 416.606
32.36000 410.206
32.40000 402.381
32.44000 429.047
32.48000 417.026
32.52000 408.485
32.56000 394.646
32.60000 395.506
32.64000 390.167
32.68000 393.282
32.72000 406.633
32.76000 410.559
32.80000 420.040
32.84000 431.613
32.88000 461.445
32.92000 470.823
32.96000 455.417
33.00000 463.245
33.04000 432.983
33.08000 411.787
33.12000 405.932
33.16000 397.414
33.20000 374.686
33.24000 365.236
33.28000 364.617
33.32000 356.969
33.36000 364.576
33.40000 371.063
33.44000 353.301
33.48000 355.768
33.52000 366.199
33.56000 349.461
33.60000 347.116
33.64000 352.580
33.68000 347.088
33.72000 353.897
33.76000 337.991
33.80000 342.798
33.84000 362.521
33.88000 360.692
33.92000 342.200
33.96000 346.025
34.00000 344.407
34.04000 336.819
34.08000 345.642
34.12000 326.698
34.16000 340.094
34.20000 327.072
34.24000 324.085
34.28000 337.408
34.32000 336.185
34.36000 333.545
34.40000 322.346
34.44000 321.249
34.48000 337.019
34.52000 328.381
34.56000 337.125
34.60000 319.851
34.64000 322.094
34.68000 332.978
34.72000 323.013
34.76000 347.170
34.80000 326.734
34.84000 322.934
34.88000 333.202
34.92000 334.288
34.96000 324.616
35.00000 327.454
35.04000 327.951
35.08000 317.718
35.12000 321.201
35.16000 324.783
35.20000 322.443
35.24000 320.649
35.28000 312.734
35.32000 317.004
35.36000 304.857
35.40000 315.396
35.44000 309.865
35.48000 320.045
35.52000 320.693
35.56000 316.548
35.60000 311.849
35.64000 313.258
35.68000 305.343
35.72000 301.317
35.76000 311.316
35.80000 309.956
35.84000 319.863
35.88000 295.059
35.92000 313.782
35.96000 304.424
36.00000 297.557
36.04000 307.093
36.08000 304.318
36.12000 300.172
36.16000 324.067
36.20000 300.439
36.24000 304.886
36.28000 304.993
36.32000 319.111
36.36000 324.199
36.40000 308.779
36.44000 321.611
36.48000 305.506
36.52000 302.635
36.56000 311.340
36.60000 305.451
36.64000 313.613
36.68000 324.809
36.72000 312.051
36.76000 307.849
36.80000 319.246
36.84000 298.058
36.88000 297.562
36.92000 315.996
36.96000 313.582
37.00000 315.786
37.04000 300.653
37.08000 308.833
37.12000 298.097
37.16000 310.515
37.20000 292.860
37.24000 301.227
37.28000 308.955
37.32000 308.553
37.36000 307.694
37.40000 303.749
37.44000 302.192
37.48000 303.360
37.52000 294.510
37.56000 302.360
37.60000 308.434
37.64000 300.414
37.68000 312.223
37.72000 298.842
37.76000 309.147
37.80000 322.716
37.84000 289.734
37.88000 307.245
37.92000 314.925
37.96000 307.227
38.00000 307.698
38.04000 290.981
38.08000 301.418
38.12000 314.161
38.16000 325.017
38.20000 311.359
38.24000 348.987
38.28000 326.595
38.32000 373.089
38.36000 396.392
38.40000 427.980
38.44000 485.158
38.48000 516.798
38.52000 586.122
38.56000 664.558
38.60000 754.491
38.64000 768.350
38.68000 778.379
38.72000 812.859
38.76000 747.940
38.80000 704.162
38.84000 643.157
38.88000 563.298
38.92000 503.526
38.96000 443.513
39.00000 417.364
39.04000 389.937
39.08000 359.730
39.12000 328.247
39.16000 329.329
39.20000 304.789
39.24000 304.661
39.28000 306.354
39.32000 313.238
39.36000 292.531
39.40000 306.011
39.44000 276.788
39.48000 295.266
39.52000 267.308
39.56000 280.802
39.60000 273.378
39.64000 283.779
39.68000 290.451
39.72000 277.134
39.76000 290.411
39.80000 284.717
39.84000 271.153
39.88000 279.084
39.92000 280.765
39.96000 282.252
40.00000 274.458
40.04000 251.906
40.08000 275.376
40.12000 273.327
40.16000 260.494
40.20000 258.497
40.24000 267.245
40.28000 267.009
40.32000 266.229
40.36000 272.280
40.40000 271.560
40.44000 267.956
40.48000 272.327
40.52000 263.826
40.56000 254.742
40.60000 253.856
40.64000 263.687
40.68000 278.567
40.72000 265.259
40.76000 258.404
40.80000 270.248
40.84000 268.007
40.88000 234.878
40.92000 258.155
40.96000 259.175
41.00000 245.346
41.04000 246.192
41.08000 239.586
41.12000 254.569
41.16000 249.534
41.20000 258.798
41.24000 254.079
41.28000 251.371
41.32000 262.021
41.36000 251.778
41.40000 246.720
41.44000 262.651
41.48000 259.392
41.52000 245.925
41.56000 243.001
41.60000 249.222
41.64000 246.438
41.68000 247.010
41.72000 254.486
41.76000 241.795
41.80000 250.104
41.84000 251.719
41.88000 248.922
41.92000 248.015
41.96000 240.766
42.00000 239.781
42.04000 234.322
42.08000 237.999
42.12000 245.902
42.16000 252.083
42.20000 245.834
42.24000 241.144
42.28000 235.478
42.32000 240.837
42.36000 230.485
42.40000 238.683
42.44000 244.262
42.48000 236.223
42.52000 237.796
42.56000 244.184
42.60000 242.650
42.64000 245.247
42.68000 243.978
42.72000 236.184
42.76000 236.869
42.80000 231.280
42.84000 232.767
42.88000 234.065
42.92000 234.064
42.96000 237.494
43.00000 241.666
43.04000 242.870
43.08000 237.816
43.12000 240.168
43.16000 225.181
43.20000 238.870
43.24000 232.712
43.28000 235.367
43.32000 227.164
43.36000 218.724
43.40000 234.018
43.44000 230.870
43.48000 225.938
43.52000 245.557
43.56000 233.028
43.60000 225.026
43.64000 228.863
43.68000 231.208
43.72000 228.690
43.76000 232.152
43.80000 232.172
43.84000 226.459
43.88000 230.268
43.92000 235.544
43.96000 226.172
44.00000 236.583
44.04000 247.728
44.08000 243.366
44.12000 240.449
44.16000 227.696
44.20000 245.748
44.24000 235.073
44.28000 242.600
44.32000 242.460
44.36000 246.124
44.40000 250.207
44.44000 266.655
44.48000 248.792
44.52000 269.321
44.56000 290.627
44.60000 279.926
44.64000 293.924
44.68000 311.425
44.72000 333.671
44.76000 353.510
44.80000 400.858
44.84000 418.287
44.88000 465.161
44.92000 488.804
44.96000 508.376
45.00000 505.159
45.04000 507.185
45.08000 511.054
45.12000 478.081
45.16000 477.048
45.20000 436.767
45.24000 411.929
45.28000 384.093
45.32000 358.496
45.36000 338.636
45.40000 316.549
45.44000 318.365
45.48000 282.879
45.52000 275.139
45.56000 271.630
45.60000 284.206
45.64000 254.789
45.68000 249.096
45.72000 248.376
45.76000 243.269
45.80000 232.315
45.84000 238.598
45.88000 228.525
45.92000 239.503
45.96000 232.870
46.00000 239.936
46.04000 226.030
46.08000 223.134
46.12000 228.053
46.16000 207.931
46.20000 210.666
46.24000 220.780
46.28000 219.048
46.32000 214.033
46.36000 207.916
46.40000 209.549
46.44000 206.712
46.48000 209.219
46.52000 204.091
46.56000 198.500
46.60000 199.740
46.64000 210.749
46.68000 209.231
46.72000 200.838
46.76000 209.250
46.80000 200.229
46.84000 200.230
46.88000 198.739
46.92000 198.157
46.96000 187.335
47.00000 204.284
47.04000 196.175
47.08000 199.141
47.12000 193.588
47.16000 193.101
47.20000 192.938
47.24000 194.728
47.28000 199.933
47.32000 198.190
47.36000 197.322
47.40000 202.361
47.44000 202.280
47.48000 196.072
47.52000 194.466
47.56000 197.335
47.60000 200.446
47.64000 195.471
47.68000 195.195
47.72000 193.620
47.76000 190.018
47.80000 190.261
47.84000 187.565
47.88000 191.919
47.92000 193.906
47.96000 189.965
48.00000 189.781
48.04000 182.679
48.08000 195.879
48.12000 200.693
48.16000 189.504
48.20000 188.633
48.24000 193.582
48.28000 171.887
48.32000 183.789
48.36000 191.191
48.40000 169.686
48.44000 194.370
48.48000 182.060
48.52000 190.292
48.56000 177.369
48.60000 177.982
48.64000 181.637
48.68000 195.435
48.72000 182.814
48.76000 180.743
48.80000 172.816
48.84000 174.668
48.88000 179.349
48.92000 187.569
48.96000 192.397
49.00000 187.156
49.04000 179.955
49.08000 172.331
49.12000 177.564
49.16000 172.452
49.20000 179.682
49.24000 176.745
49.28000 181.843
49.32000 195.750
49.36000 187.449
49.40000 188.411
49.44000 171.680
49.48000 175.041
49.52000 173.350
49.56000 169.757
49.60000 183.245
49.64000 176.364
49.68000 182.295
49.72000 175.702
49.76000 179.778
49.80000 178.465
49.84000 186.594
49.88000 179.277
49.92000 185.928
49.96000 187.150
50.00000 175.974
50.04000 182.812
50.08000 185.529
50.12000 182.492
50.16000 190.185
50.20000 188.615
50.24000 200.561
50.28000 195.042
50.32000 205.169
50.36000 207.779
50.40000 214.204
50.44000 223.064
50.48000 238.418
50.52000 261.381
50.56000 266.328
50.60000 277.215
50.64000 271.728
50.68000 280.803
50.72000 286.541
50.76000 271.593
50.80000 278.626
50.84000 262.493
50.88000 251.963
50.92000 251.465
50.96000 229.061
51.00000 226.442
51.04000 208.124
51.08000 206.602
51.12000 201.399
51.16000 192.176
51.20000 202.228
51.24000 186.180
51.28000 190.975
51.32000 186.409
51.36000 168.165
51.40000 176.110
51.44000 175.733
51.48000 179.508
51.52000 186.974
51.56000 171.201
51.60000 171.813
51.64000 171.474
51.68000 157.274
51.72000 177.575
51.76000 171.956
51.80000 165.962
51.84000 163.795
51.88000 170.660
51.92000 161.282
51.96000 166.776
52.00000 166.226
52.04000 165.117
52.08000 166.418
52.12000 165.041
52.16000 152.303
52.20000 170.193
52.24000 159.503
52.28000 162.473
52.32000 165.761
52.36000 172.877
52.40000 161.037
52.44000 173.698
52.48000 168.012
52.52000 167.937
52.56000 165.376
52.60000 170.768
52.64000 158.732
52.68000 171.880
52.72000 177.611
52.76000 162.423
52.80000 167.180
52.84000 166.214
52.88000 168.095
52.92000 157.530
52.96000 167.511
53.00000 172.676
53.04000 159.883
53.08000 151.566
53.12000 166.223
53.16000 177.445
53.20000 156.584
53.24000 161.567
53.28000 162.392
53.32000 157.743
53.36000 158.756
53.40000 181.305
53.44000 148.791
53.48000 163.656
53.52000 155.206
53.56000 158.903
53.60000 165.993
53.64000 152.329
53.68000 158.842
53.72000 159.725
53.76000 160.439
53.80000 164.520
53.84000 161.665
53.88000 164.601
53.92000 159.949
53.96000 163.640
54.00000 169.258
54.04000 156.690
54.08000 168.962
54.12000 161.909
54.16000 150.615
54.20000 149.111
54.24000 157.753
54.28000 159.690
54.32000 160.184
54.36000 154.194
54.40000 167.912
54.44000 164.434
54.48000 164.188
54.52000 159.591
54.56000 152.204
54.60000 162.409
54.64000 175.251
54.68000 160.384
54.72000 154.117
54.76000 149.238
54.80000 166.754
54.84000 162.965
54.88000 157.831
54.92000 161.457
54.96000 162.717
55.00000 173.471
55.04000 168.310
55.08000 152.914
55.12000 176.435
55.16000 176.258
55.20000 181.083
55.24000 171.591
55.28000 171.880
55.32000 184.177
55.36000 186.307
55.40000 203.002
55.44000 214.611
55.48000 236.906
55.52000 241.447
55.56000 261.735
55.60000 288.065
55.64000 312.779
55.68000 374.589
55.72000 416.453
55.76000 472.220
55.80000 521.719
55.84000 536.811
55.88000 568.431
55.92000 561.652
55.96000 576.634
56.00000 535.983
56.04000 520.813
56.08000 466.673
56.12000 422.232
56.16000 389.163
56.20000 346.842
56.24000 313.461
56.28000 296.560
56.32000 257.483
56.36000 241.612
56.40000 225.493
56.44000 202.451
56.48000 198.904
56.52000 191.185
56.56000 181.841
56.60000 183.743
56.64000 182.207
56.68000 176.293
56.72000 163.007
56.76000 171.168
56.80000 161.608
56.84000 166.871
56.88000 163.777
56.92000 149.155
56.96000 163.647
57.00000 153.061
57.04000 150.548
57.08000 150.829
57.12000 146.083
57.16000 148.918
57.20000 142.499
57.24000 143.082
57.28000 145.256
57.32000 149.893
57.36000 151.455
57.40000 140.496
57.44000 152.521
57.48000 155.420
57.52000 139.421
57.56000 143.192
57.60000 140.276
57.64000 152.883
57.68000 151.063
57.72000 140.825
57.76000 143.858
57.80000 140.986
57.84000 141.215
57.88000 144.141
57.92000 141.563
57.96000 149.850
58.00000 155.177
58.04000 140.407
58.08000 143.905
58.12000 146.001
58.16000 139.242
58.20000 135.292
58.24000 148.649
58.28000 154.361
58.32000 151.318
58.36000 142.989
58.40000 147.154
58.44000 144.853
58.48000 134.290
58.52000 140.534
58.56000 135.541
58.60000 143.699
58.64000 134.380
58.68000 134.042
58.72000 139.881
58.76000 144.087
58.80000 134.146
58.84000 132.599
58.88000 139.240
58.92000 139.427
58.96000 124.089
59.00000 131.200
59.04000 129.073
59.08000 132.901
59.12000 143.461
59.16000 137.014
59.20000 139.381
59.24000 131.813
59.28000 134.190
59.32000 137.460
59.36000 134.535
59.40000 145.221
59.44000 146.274
59.48000 125.822
59.52000 139.005
59.56000 135.062
59.60000 129.416
59.64000 131.722
59.68000 138.016
59.72000 128.637
59.76000 134.202
59.80000 137.403
59.84000 136.318
59.88000 141.958
59.92000 140.083
59.96000 132.752
60.00000 145.505
60.04000 137.186
60.08000 133.836
60.12000 131.951
60.16000 126.233
60.20000 125.117
60.24000 133.059
60.28000 137.456
60.32000 138.513
60.36000 130.214
60.40000 133.986
60.44000 141.169
60.48000 138.432
60.52000 134.998
60.56000 136.199
60.60000 131.512
60.64000 129.216
60.68000 137.582
60.72000 134.092
60.76000 127.810
60.80000 133.092
60.84000 139.793
60.88000 145.056
60.92000 134.874
60.96000 134.906
61.00000 133.251
61.04000 138.365
61.08000 144.340
61.12000 146.388
61.16000 147.111
61.20000 142.724
61.24000 131.952
61.28000 134.477
61.32000 138.261
61.36000 137.036
61.40000 135.783
61.44000 154.047
61.48000 156.757
61.52000 184.437
61.56000 240.016
61.60000 319.823
61.64000 355.354
61.68000 364.306
61.72000 376.430
61.76000 340.064
61.80000 276.116
61.84000 214.438
61.88000 166.916
61.92000 158.694
61.96000 150.351
62.00000 138.054
62.04000 152.160
62.08000 149.511
62.12000 148.082
62.16000 147.501
62.20000 136.094
62.24000 152.110
62.28000 150.148
62.32000 146.437
62.36000 148.549
62.40000 139.193
62.44000 149.609
62.48000 149.863
62.52000 139.223
62.56000 141.436
62.60000 141.659
62.64000 144.345
62.68000 140.889
62.72000 151.584
62.76000 146.497
62.80000 147.203
62.84000 145.637
62.88000 144.953
62.92000 144.547
62.96000 147.763
63.00000 161.021
63.04000 136.242
63.08000 147.535
63.12000 146.525
63.16000 150.248
63.20000 143.919
63.24000 157.231
63.28000 155.416
63.32000 152.568
63.36000 145.875
63.40000 149.841
63.44000 157.246
63.48000 159.557
63.52000 150.386
63.56000 152.657
63.60000 153.503
63.64000 152.121
63.68000 146.649
63.72000 143.968
63.76000 154.594
63.80000 165.719
63.84000 163.933
63.88000 162.971
63.92000 166.054
63.96000 161.130
64.00000 162.872
64.04000 167.765
64.08000 172.487
64.12000 162.192
64.16000 164.920
64.20000 166.362
64.24000 163.621
64.28000 161.864
64.32000 159.369
64.36000 164.072
64.40000 174.136
64.44000 176.099
64.48000 166.352
64.52000 175.596
64.56000 171.854
64.60000 167.965
64.64000 177.113
64.68000 172.398
64.72000 174.865
64.76000 172.826
64.80000 181.628
64.84000 200.454
64.88000 193.547
64.92000 194.898
64.96000 198.109
65.00000 208.660
65.04000 211.323
65.08000 217.887
65.12000 221.138
65.16000 240.370
65.20000 261.007
65.24000 273.788
65.28000 281.202
65.32000 311.898
65.36000 333.177
65.40000 367.747
65.44000 371.979
65.48000 413.055
65.52000 412.139
65.56000 431.445
65.60000 476.868
65.64000 500.117
65.68000 612.611
65.72000 811.117
65.76000 1138.521
65.80000 1419.120
65.84000 1567.465
65.88000 1603.464
65.92000 1567.884
65.96000 1355.885
66.00000 929.428
66.04000 639.025
66.08000 468.001
66.12000 395.447
66.16000 372.901
66.20000 381.121
66.24000 385.963
66.28000 413.379
66.32000 484.262
66.36000 529.409
66.40000 568.411
66.44000 569.267
66.48000 564.734
66.52000 504.092
66.56000 447.183
66.60000 403.035
66.64000 373.239
66.68000 347.626
66.72000 362.494
66.76000 356.438
66.80000 348.059
66.84000 383.139
66.88000 384.080
66.92000 378.688
66.96000 401.994
67.00000 384.098
67.04000 383.512
67.08000 406.876
67.12000 413.273
67.16000 429.077
67.20000 429.562
67.24000 454.428
67.28000 441.463
67.32000 451.979
67.36000 464.127
67.40000 453.961
67.44000 477.274
67.48000 487.602
67.52000 487.086
67.56000 504.296
67.60000 524.689
67.64000 508.827
67.68000 530.916
67.72000 560.916
67.76000 556.213
67.80000 550.121
67.84000 584.834
67.88000 583.796
67.92000 583.152
67.96000 607.900
68.00000 624.114
68.04000 654.267
68.08000 657.045
68.12000 685.898
68.16000 677.681
68.20000 719.095
68.24000 739.734
68.28000 759.192
68.32000 770.547
68.36000 817.015
68.40000 833.957
68.44000 893.148
68.48000 948.023
68.52000 1003.191
68.56000 1116.060
68.60000 1247.347
68.64000 1495.821
68.68000 1802.260
68.72000 2153.679
68.76000 2565.356
68.80000 2940.979
68.84000 3636.751
68.88000 5060.280
68.92000 9118.291
68.96000 21070.719
69.00000 46149.059
69.04000 74255.438
69.08000 89676.453
69.12000 93550.563
69.16000 97053.141
69.20000 95947.547
69.24000 81542.586
69.28000 63326.488
69.32000 51381.652
69.36000 45765.074
69.40000 37606.203
69.44000 23331.391
69.48000 11247.448
69.52000 4986.556
69.56000 2852.030
69.60000 2113.364
69.64000 1738.587
69.68000 1493.440
69.72000 1339.417
69.76000 1211.124
69.80000 1126.070
69.84000 1002.546
69.88000 954.533
69.92000 898.563
69.96000 859.383
70.00000 818.218