File: XRD/22-09-2025 Dep 2/XY Data/BTO_Mapping_Theta2Theta_22-09-2025_001_54_-6-676_-29-248.xy
20.00000 598.291
20.04000 587.676
20.08000 576.032
20.12000 590.134
20.16000 580.331
20.20000 567.316
20.24000 568.774
20.28000 567.825
20.32000 570.374
20.36000 564.133
20.40000 587.740
20.44000 555.660
20.48000 552.935
20.52000 570.575
20.56000 554.001
20.60000 541.875
20.64000 565.696
20.68000 540.774
20.72000 561.818
20.76000 562.002
20.80000 569.864
20.84000 555.469
20.88000 565.202
20.92000 586.692
20.96000 556.627
21.00000 550.262
21.04000 551.051
21.08000 554.274
21.12000 555.305
21.16000 572.743
21.20000 554.184
21.24000 555.594
21.28000 567.333
21.32000 552.305
21.36000 559.593
21.40000 562.834
21.44000 560.088
21.48000 550.843
21.52000 556.343
21.56000 574.437
21.60000 572.410
21.64000 570.138
21.68000 587.540
21.72000 599.280
21.76000 589.765
21.80000 622.891
21.84000 640.026
21.88000 688.391
21.92000 714.059
21.96000 767.732
22.00000 779.511
22.04000 825.185
22.08000 853.400
22.12000 859.886
22.16000 839.791
22.20000 766.091
22.24000 734.596
22.28000 710.459
22.32000 667.352
22.36000 636.572
22.40000 584.695
22.44000 599.988
22.48000 584.671
22.52000 577.740
22.56000 561.136
22.60000 553.458
22.64000 543.013
22.68000 549.594
22.72000 544.908
22.76000 545.565
22.80000 530.867
22.84000 534.267
22.88000 536.019
22.92000 516.181
22.96000 511.238
23.00000 531.066
23.04000 532.472
23.08000 504.517
23.12000 527.009
23.16000 516.203
23.20000 521.561
23.24000 513.829
23.28000 499.730
23.32000 500.571
23.36000 523.794
23.40000 496.367
23.44000 503.562
23.48000 495.555
23.52000 494.947
23.56000 507.757
23.60000 493.020
23.64000 504.840
23.68000 480.488
23.72000 513.127
23.76000 512.506
23.80000 513.732
23.84000 500.336
23.88000 492.189
23.92000 520.802
23.96000 492.618
24.00000 504.236
24.04000 493.947
24.08000 511.624
24.12000 499.451
24.16000 491.675
24.20000 476.767
24.24000 499.031
24.28000 498.163
24.32000 504.981
24.36000 482.046
24.40000 493.925
24.44000 491.189
24.48000 499.752
24.52000 498.671
24.56000 483.785
24.60000 486.119
24.64000 493.581
24.68000 499.076
24.72000 493.801
24.76000 477.111
24.80000 480.494
24.84000 481.647
24.88000 468.709
24.92000 478.676
24.96000 478.881
25.00000 515.639
25.04000 485.648
25.08000 481.726
25.12000 468.245
25.16000 472.269
25.20000 477.118
25.24000 464.029
25.28000 480.123
25.32000 491.257
25.36000 461.659
25.40000 473.166
25.44000 465.543
25.48000 487.829
25.52000 487.208
25.56000 466.365
25.60000 453.222
25.64000 452.423
25.68000 472.853
25.72000 473.723
25.76000 456.579
25.80000 475.685
25.84000 466.001
25.88000 463.062
25.92000 477.691
25.96000 454.034
26.00000 476.865
26.04000 452.972
26.08000 472.223
26.12000 462.948
26.16000 452.688
26.20000 451.249
26.24000 449.525
26.28000 455.995
26.32000 456.686
26.36000 472.965
26.40000 493.154
26.44000 458.904
26.48000 463.183
26.52000 447.163
26.56000 449.233
26.60000 469.012
26.64000 448.477
26.68000 466.928
26.72000 459.137
26.76000 469.130
26.80000 457.419
26.84000 459.243
26.88000 448.491
26.92000 459.433
26.96000 442.266
27.00000 426.971
27.04000 451.115
27.08000 437.675
27.12000 448.636
27.16000 441.761
27.20000 443.622
27.24000 449.908
27.28000 438.811
27.32000 435.441
27.36000 457.760
27.40000 443.860
27.44000 426.661
27.48000 437.323
27.52000 437.392
27.56000 440.334
27.60000 424.327
27.64000 426.685
27.68000 437.328
27.72000 451.304
27.76000 429.049
27.80000 448.402
27.84000 430.282
27.88000 434.125
27.92000 423.309
27.96000 430.745
28.00000 434.218
28.04000 434.041
28.08000 436.354
28.12000 434.108
28.16000 443.044
28.20000 432.346
28.24000 453.785
28.28000 432.196
28.32000 441.695
28.36000 445.057
28.40000 428.634
28.44000 434.139
28.48000 438.250
28.52000 427.395
28.56000 404.660
28.60000 439.208
28.64000 429.954
28.68000 407.479
28.72000 424.642
28.76000 433.808
28.80000 427.340
28.84000 433.888
28.88000 446.649
28.92000 421.254
28.96000 434.480
29.00000 413.992
29.04000 402.540
29.08000 435.047
29.12000 417.562
29.16000 437.615
29.20000 428.277
29.24000 433.353
29.28000 430.004
29.32000 424.178
29.36000 439.500
29.40000 410.732
29.44000 408.401
29.48000 407.855
29.52000 430.933
29.56000 431.914
29.60000 425.720
29.64000 420.701
29.68000 419.431
29.72000 410.025
29.76000 421.257
29.80000 420.652
29.84000 427.142
29.88000 433.212
29.92000 437.391
29.96000 432.307
30.00000 437.671
30.04000 458.926
30.08000 448.585
30.12000 442.377
30.16000 453.024
30.20000 450.787
30.24000 446.224
30.28000 436.909
30.32000 441.621
30.36000 429.452
30.40000 432.614
30.44000 432.512
30.48000 439.968
30.52000 447.436
30.56000 474.443
30.60000 446.009
30.64000 448.167
30.68000 444.638
30.72000 465.444
30.76000 460.943
30.80000 484.343
30.84000 497.236
30.88000 530.168
30.92000 520.099
30.96000 579.495
31.00000 580.637
31.04000 674.795
31.08000 720.376
31.12000 888.046
31.16000 1104.257
31.20000 1432.182
31.24000 1811.971
31.28000 2317.305
31.32000 2821.122
31.36000 3229.803
31.40000 3414.619
31.44000 3432.070
31.48000 3276.776
31.52000 2854.574
31.56000 2359.612
31.60000 1967.430
31.64000 1575.944
31.68000 1218.657
31.72000 993.125
31.76000 854.996
31.80000 748.135
31.84000 650.695
31.88000 585.161
31.92000 502.101
31.96000 496.864
32.00000 473.563
32.04000 470.550
32.08000 444.484
32.12000 431.949
32.16000 441.381
32.20000 428.829
32.24000 409.621
32.28000 415.503
32.32000 417.044
32.36000 388.044
32.40000 408.080
32.44000 410.485
32.48000 400.480
32.52000 396.558
32.56000 418.753
32.60000 399.749
32.64000 402.454
32.68000 409.408
32.72000 421.397
32.76000 400.733
32.80000 407.515
32.84000 449.363
32.88000 454.139
32.92000 438.626
32.96000 438.787
33.00000 452.838
33.04000 456.018
33.08000 415.775
33.12000 396.092
33.16000 373.246
33.20000 375.425
33.24000 353.313
33.28000 361.514
33.32000 355.310
33.36000 341.862
33.40000 358.660
33.44000 355.395
33.48000 365.192
33.52000 347.909
33.56000 342.271
33.60000 350.022
33.64000 346.672
33.68000 343.799
33.72000 348.567
33.76000 354.148
33.80000 356.197
33.84000 347.706
33.88000 357.311
33.92000 356.904
33.96000 348.730
34.00000 324.398
34.04000 346.193
34.08000 330.134
34.12000 351.468
34.16000 330.252
34.20000 335.483
34.24000 327.260
34.28000 334.819
34.32000 330.719
34.36000 332.605
34.40000 344.544
34.44000 337.174
34.48000 330.183
34.52000 333.245
34.56000 339.496
34.60000 331.931
34.64000 319.359
34.68000 319.998
34.72000 331.978
34.76000 330.648
34.80000 325.929
34.84000 319.885
34.88000 325.122
34.92000 321.763
34.96000 328.127
35.00000 327.250
35.04000 341.698
35.08000 316.980
35.12000 319.868
35.16000 323.708
35.20000 313.629
35.24000 334.208
35.28000 298.280
35.32000 317.673
35.36000 317.895
35.40000 316.689
35.44000 305.513
35.48000 316.953
35.52000 309.788
35.56000 310.265
35.60000 315.270
35.64000 305.731
35.68000 328.743
35.72000 313.251
35.76000 310.867
35.80000 294.604
35.84000 303.065
35.88000 310.063
35.92000 309.556
35.96000 305.701
36.00000 313.115
36.04000 304.594
36.08000 324.378
36.12000 299.727
36.16000 328.121
36.20000 315.605
36.24000 316.452
36.28000 318.341
36.32000 288.330
36.36000 295.128
36.40000 298.799
36.44000 320.895
36.48000 312.637
36.52000 294.972
36.56000 293.869
36.60000 302.726
36.64000 296.550
36.68000 307.944
36.72000 302.771
36.76000 306.061
36.80000 310.111
36.84000 304.055
36.88000 303.886
36.92000 309.350
36.96000 302.837
37.00000 305.796
37.04000 296.366
37.08000 314.542
37.12000 314.702
37.16000 302.479
37.20000 296.135
37.24000 314.832
37.28000 302.546
37.32000 322.208
37.36000 297.716
37.40000 304.497
37.44000 293.469
37.48000 315.329
37.52000 285.772
37.56000 289.670
37.60000 286.264
37.64000 291.919
37.68000 293.140
37.72000 289.319
37.76000 313.454
37.80000 295.144
37.84000 290.388
37.88000 290.039
37.92000 298.985
37.96000 306.654
38.00000 287.152
38.04000 304.209
38.08000 307.259
38.12000 313.191
38.16000 311.497
38.20000 304.283
38.24000 314.525
38.28000 335.264
38.32000 338.956
38.36000 347.235
38.40000 388.122
38.44000 396.157
38.48000 452.345
38.52000 507.011
38.56000 591.583
38.60000 714.841
38.64000 816.960
38.68000 901.921
38.72000 930.862
38.76000 931.221
38.80000 898.825
38.84000 817.946
38.88000 715.788
38.92000 616.890
38.96000 520.671
39.00000 436.006
39.04000 398.096
39.08000 378.371
39.12000 346.549
39.16000 329.585
39.20000 309.350
39.24000 301.006
39.28000 292.776
39.32000 284.047
39.36000 293.596
39.40000 297.930
39.44000 289.556
39.48000 284.909
39.52000 284.621
39.56000 280.827
39.60000 281.176
39.64000 274.832
39.68000 272.168
39.72000 267.559
39.76000 275.128
39.80000 290.763
39.84000 270.085
39.88000 288.997
39.92000 275.793
39.96000 283.638
40.00000 270.583
40.04000 275.572
40.08000 270.970
40.12000 262.892
40.16000 254.365
40.20000 265.650
40.24000 263.621
40.28000 251.635
40.32000 262.440
40.36000 262.524
40.40000 270.948
40.44000 263.342
40.48000 278.405
40.52000 271.904
40.56000 261.816
40.60000 247.251
40.64000 252.203
40.68000 240.877
40.72000 246.683
40.76000 252.826
40.80000 253.816
40.84000 252.933
40.88000 259.782
40.92000 257.415
40.96000 247.930
41.00000 248.445
41.04000 243.452
41.08000 246.508
41.12000 248.531
41.16000 249.074
41.20000 236.637
41.24000 234.101
41.28000 249.072
41.32000 243.331
41.36000 252.000
41.40000 239.006
41.44000 243.816
41.48000 260.668
41.52000 244.617
41.56000 250.984
41.60000 257.832
41.64000 246.947
41.68000 247.874
41.72000 237.151
41.76000 250.671
41.80000 247.572
41.84000 233.337
41.88000 246.563
41.92000 250.541
41.96000 246.726
42.00000 247.694
42.04000 239.004
42.08000 237.943
42.12000 232.753
42.16000 231.955
42.20000 246.546
42.24000 245.175
42.28000 240.991
42.32000 239.385
42.36000 242.777
42.40000 232.362
42.44000 224.761
42.48000 229.661
42.52000 238.788
42.56000 227.205
42.60000 231.816
42.64000 229.696
42.68000 237.572
42.72000 230.247
42.76000 227.323
42.80000 238.180
42.84000 239.468
42.88000 255.109
42.92000 236.858
42.96000 234.077
43.00000 239.444
43.04000 239.662
43.08000 218.176
43.12000 243.721
43.16000 238.578
43.20000 236.012
43.24000 231.592
43.28000 240.144
43.32000 229.602
43.36000 237.380
43.40000 213.962
43.44000 227.302
43.48000 222.386
43.52000 215.333
43.56000 236.231
43.60000 220.659
43.64000 215.426
43.68000 217.785
43.72000 224.654
43.76000 234.995
43.80000 221.441
43.84000 231.732
43.88000 225.791
43.92000 237.577
43.96000 233.821
44.00000 219.905
44.04000 228.650
44.08000 222.780
44.12000 241.283
44.16000 232.520
44.20000 237.124
44.24000 223.730
44.28000 236.771
44.32000 260.677
44.36000 236.205
44.40000 243.578
44.44000 218.528
44.48000 236.776
44.52000 230.976
44.56000 238.431
44.60000 248.694
44.64000 257.674
44.68000 260.295
44.72000 281.554
44.76000 289.250
44.80000 306.525
44.84000 314.430
44.88000 333.248
44.92000 364.516
44.96000 411.546
45.00000 422.445
45.04000 439.066
45.08000 450.589
45.12000 457.652
45.16000 450.739
45.20000 425.705
45.24000 410.914
45.28000 376.251
45.32000 361.574
45.36000 335.055
45.40000 347.127
45.44000 310.611
45.48000 309.937
45.52000 270.363
45.56000 292.384
45.60000 280.410
45.64000 250.944
45.68000 270.933
45.72000 254.036
45.76000 246.613
45.80000 253.388
45.84000 244.178
45.88000 240.842
45.92000 227.407
45.96000 232.050
46.00000 226.327
46.04000 214.402
46.08000 204.187
46.12000 214.914
46.16000 212.190
46.20000 210.203
46.24000 203.513
46.28000 207.947
46.32000 221.790
46.36000 214.998
46.40000 212.768
46.44000 209.352
46.48000 208.276
46.52000 208.459
46.56000 200.999
46.60000 198.087
46.64000 195.347
46.68000 198.040
46.72000 205.209
46.76000 208.481
46.80000 209.407
46.84000 203.146
46.88000 202.432
46.92000 201.724
46.96000 203.023
47.00000 189.617
47.04000 197.220
47.08000 186.960
47.12000 185.023
47.16000 187.486
47.20000 191.031
47.24000 204.570
47.28000 192.718
47.32000 189.904
47.36000 181.977
47.40000 193.743
47.44000 191.219
47.48000 193.946
47.52000 190.248
47.56000 177.678
47.60000 181.224
47.64000 187.882
47.68000 191.070
47.72000 190.368
47.76000 191.553
47.80000 178.310
47.84000 189.403
47.88000 185.417
47.92000 186.573
47.96000 195.159
48.00000 182.085
48.04000 188.382
48.08000 179.329
48.12000 195.205
48.16000 188.433
48.20000 195.736
48.24000 189.927
48.28000 180.569
48.32000 183.209
48.36000 190.306
48.40000 184.027
48.44000 194.729
48.48000 190.820
48.52000 182.066
48.56000 182.210
48.60000 184.822
48.64000 181.020
48.68000 180.547
48.72000 194.733
48.76000 180.136
48.80000 192.125
48.84000 195.899
48.88000 191.844
48.92000 190.268
48.96000 183.457
49.00000 185.553
49.04000 176.272
49.08000 180.652
49.12000 188.990
49.16000 182.748
49.20000 182.330
49.24000 172.016
49.28000 182.658
49.32000 177.927
49.36000 176.634
49.40000 163.450
49.44000 178.611
49.48000 188.837
49.52000 182.594
49.56000 159.111
49.60000 183.407
49.64000 188.039
49.68000 179.925
49.72000 173.662
49.76000 174.686
49.80000 171.165
49.84000 181.073
49.88000 177.176
49.92000 174.422
49.96000 186.090
50.00000 175.649
50.04000 182.187
50.08000 179.586
50.12000 188.131
50.16000 192.155
50.20000 182.655
50.24000 180.166
50.28000 180.682
50.32000 196.104
50.36000 193.857
50.40000 196.620
50.44000 205.379
50.48000 190.650
50.52000 225.028
50.56000 224.392
50.60000 248.601
50.64000 260.925
50.68000 269.490
50.72000 281.105
50.76000 268.132
50.80000 268.903
50.84000 257.437
50.88000 255.636
50.92000 231.212
50.96000 232.841
51.00000 233.825
51.04000 227.500
51.08000 201.664
51.12000 192.926
51.16000 187.855
51.20000 193.829
51.24000 176.609
51.28000 183.324
51.32000 176.140
51.36000 173.704
51.40000 177.979
51.44000 177.094
51.48000 185.502
51.52000 173.177
51.56000 172.360
51.60000 177.285
51.64000 172.456
51.68000 166.065
51.72000 170.727
51.76000 165.383
51.80000 174.199
51.84000 170.244
51.88000 174.977
51.92000 154.608
51.96000 174.654
52.00000 163.475
52.04000 158.957
52.08000 167.839
52.12000 159.894
52.16000 171.102
52.20000 153.940
52.24000 159.924
52.28000 168.922
52.32000 157.382
52.36000 170.941
52.40000 163.178
52.44000 158.051
52.48000 155.255
52.52000 169.190
52.56000 159.916
52.60000 151.563
52.64000 162.146
52.68000 157.329
52.72000 158.437
52.76000 174.806
52.80000 173.574
52.84000 165.345
52.88000 145.486
52.92000 163.657
52.96000 161.125
53.00000 162.250
53.04000 156.691
53.08000 168.213
53.12000 163.816
53.16000 164.235
53.20000 153.495
53.24000 153.427
53.28000 161.084
53.32000 163.694
53.36000 160.692
53.40000 166.260
53.44000 170.685
53.48000 161.419
53.52000 167.659
53.56000 162.353
53.60000 156.140
53.64000 165.671
53.68000 161.112
53.72000 151.972
53.76000 153.033
53.80000 161.687
53.84000 164.043
53.88000 153.807
53.92000 157.392
53.96000 150.364
54.00000 158.955
54.04000 156.325
54.08000 157.931
54.12000 154.644
54.16000 163.903
54.20000 153.435
54.24000 150.940
54.28000 163.628
54.32000 156.736
54.36000 150.716
54.40000 154.989
54.44000 159.278
54.48000 150.625
54.52000 158.211
54.56000 159.267
54.60000 162.525
54.64000 158.256
54.68000 171.231
54.72000 159.623
54.76000 153.823
54.80000 151.739
54.84000 147.276
54.88000 155.494
54.92000 163.578
54.96000 152.378
55.00000 159.183
55.04000 161.617
55.08000 162.328
55.12000 163.630
55.16000 170.247
55.20000 168.333
55.24000 162.485
55.28000 169.949
55.32000 178.506
55.36000 166.061
55.40000 179.583
55.44000 174.502
55.48000 186.351
55.52000 215.780
55.56000 217.795
55.60000 228.387
55.64000 254.532
55.68000 287.225
55.72000 307.628
55.76000 346.953
55.80000 422.303
55.84000 459.518
55.88000 513.382
55.92000 558.068
55.96000 575.916
56.00000 578.904
56.04000 594.973
56.08000 532.344
56.12000 498.452
56.16000 462.153
56.20000 408.286
56.24000 367.640
56.28000 327.148
56.32000 280.884
56.36000 291.634
56.40000 252.507
56.44000 215.312
56.48000 215.418
56.52000 216.108
56.56000 201.012
56.60000 190.459
56.64000 180.257
56.68000 192.082
56.72000 174.742
56.76000 159.117
56.80000 159.080
56.84000 147.424
56.88000 165.563
56.92000 156.334
56.96000 158.621
57.00000 155.975
57.04000 156.511
57.08000 155.499
57.12000 160.930
57.16000 147.171
57.20000 149.558
57.24000 142.722
57.28000 150.396
57.32000 147.769
57.36000 152.637
57.40000 149.514
57.44000 151.473
57.48000 161.350
57.52000 147.139
57.56000 149.484
57.60000 146.699
57.64000 151.946
57.68000 153.107
57.72000 138.077
57.76000 138.205
57.80000 157.524
57.84000 150.398
57.88000 144.921
57.92000 148.449
57.96000 150.877
58.00000 151.636
58.04000 148.057
58.08000 143.331
58.12000 134.028
58.16000 142.731
58.20000 147.602
58.24000 141.199
58.28000 138.198
58.32000 147.696
58.36000 147.898
58.40000 146.968
58.44000 135.209
58.48000 137.885
58.52000 145.517
58.56000 137.367
58.60000 133.208
58.64000 144.228
58.68000 136.281
58.72000 133.937
58.76000 138.822
58.80000 128.761
58.84000 138.364
58.88000 133.441
58.92000 138.726
58.96000 133.309
59.00000 144.197
59.04000 141.252
59.08000 129.884
59.12000 131.020
59.16000 136.048
59.20000 135.123
59.24000 140.247
59.28000 141.555
59.32000 126.588
59.36000 136.066
59.40000 146.545
59.44000 145.257
59.48000 133.793
59.52000 132.227
59.56000 135.652
59.60000 135.229
59.64000 135.456
59.68000 139.571
59.72000 131.716
59.76000 131.561
59.80000 142.027
59.84000 138.996
59.88000 128.411
59.92000 141.614
59.96000 138.598
60.00000 149.540
60.04000 134.787
60.08000 137.648
60.12000 134.108
60.16000 132.719
60.20000 128.758
60.24000 139.853
60.28000 143.435
60.32000 118.732
60.36000 136.433
60.40000 141.259
60.44000 128.846
60.48000 139.899
60.52000 145.766
60.56000 129.282
60.60000 135.533
60.64000 135.555
60.68000 128.944
60.72000 133.353
60.76000 136.087
60.80000 127.107
60.84000 138.424
60.88000 129.126
60.92000 128.213
60.96000 135.441
61.00000 128.122
61.04000 147.415
61.08000 135.887
61.12000 141.311
61.16000 139.937
61.20000 145.974
61.24000 136.261
61.28000 144.792
61.32000 143.826
61.36000 153.072
61.40000 139.947
61.44000 149.210
61.48000 149.590
61.52000 178.387
61.56000 221.572
61.60000 272.192
61.64000 320.808
61.68000 339.308
61.72000 347.623
61.76000 342.744
61.80000 296.795
61.84000 214.125
61.88000 166.007
61.92000 160.689
61.96000 157.619
62.00000 140.451
62.04000 143.107
62.08000 138.948
62.12000 146.284
62.16000 142.434
62.20000 140.066
62.24000 142.366
62.28000 146.142
62.32000 137.239
62.36000 137.274
62.40000 134.644
62.44000 138.807
62.48000 150.494
62.52000 136.215
62.56000 143.119
62.60000 154.887
62.64000 157.897
62.68000 159.136
62.72000 131.669
62.76000 148.665
62.80000 152.263
62.84000 145.289
62.88000 147.340
62.92000 136.646
62.96000 143.276
63.00000 159.302
63.04000 146.959
63.08000 143.748
63.12000 144.254
63.16000 144.804
63.20000 147.380
63.24000 148.404
63.28000 152.399
63.32000 155.138
63.36000 153.737
63.40000 151.262
63.44000 160.202
63.48000 149.004
63.52000 152.327
63.56000 151.010
63.60000 158.832
63.64000 161.645
63.68000 154.462
63.72000 159.072
63.76000 169.760
63.80000 160.726
63.84000 162.103
63.88000 146.133
63.92000 148.420
63.96000 163.901
64.00000 145.827
64.04000 155.780
64.08000 161.786
64.12000 171.238
64.16000 157.622
64.20000 161.368
64.24000 158.632
64.28000 162.786
64.32000 164.208
64.36000 168.374
64.40000 163.004
64.44000 176.616
64.48000 173.243
64.52000 175.909
64.56000 177.587
64.60000 191.535
64.64000 183.500
64.68000 168.181
64.72000 188.958
64.76000 186.984
64.80000 187.143
64.84000 187.704
64.88000 181.186
64.92000 204.021
64.96000 202.398
65.00000 203.887
65.04000 215.423
65.08000 205.341
65.12000 214.400
65.16000 237.328
65.20000 248.113
65.24000 252.009
65.28000 255.575
65.32000 274.432
65.36000 292.479
65.40000 323.851
65.44000 335.267
65.48000 377.455
65.52000 397.028
65.56000 427.330
65.60000 449.321
65.64000 491.442
65.68000 583.554
65.72000 734.691
65.76000 1017.675
65.80000 1302.152
65.84000 1442.639
65.88000 1468.034
65.92000 1489.571
65.96000 1317.414
66.00000 972.528
66.04000 659.858
66.08000 487.017
66.12000 418.049
66.16000 367.184
66.20000 366.717
66.24000 359.758
66.28000 399.929
66.32000 443.032
66.36000 505.904
66.40000 557.472
66.44000 537.944
66.48000 523.654
66.52000 507.804
66.56000 422.946
66.60000 394.123
66.64000 363.435
66.68000 352.799
66.72000 358.914
66.76000 363.195
66.80000 351.929
66.84000 361.967
66.88000 362.262
66.92000 380.713
66.96000 373.763
67.00000 384.617
67.04000 396.361
67.08000 390.728
67.12000 398.424
67.16000 421.286
67.20000 411.053
67.24000 420.602
67.28000 427.545
67.32000 442.255
67.36000 453.889
67.40000 427.876
67.44000 469.501
67.48000 469.322
67.52000 474.973
67.56000 487.564
67.60000 493.848
67.64000 499.173
67.68000 512.417
67.72000 536.597
67.76000 533.012
67.80000 538.782
67.84000 543.929
67.88000 571.173
67.92000 580.452
67.96000 562.245
68.00000 588.361
68.04000 626.595
68.08000 640.627
68.12000 647.496
68.16000 663.609
68.20000 678.947
68.24000 708.705
68.28000 729.910
68.32000 741.513
68.36000 767.331
68.40000 822.466
68.44000 858.536
68.48000 885.599
68.52000 959.522
68.56000 982.192
68.60000 1144.210
68.64000 1317.683
68.68000 1597.353
68.72000 1937.752
68.76000 2264.105
68.80000 2690.725
68.84000 3302.227
68.88000 4373.818
68.92000 7195.378
68.96000 15493.839
69.00000 35079.887
69.04000 60910.344
69.08000 78237.922
69.12000 83420.953
69.16000 86615.008
69.20000 87857.367
69.24000 77762.586
69.28000 60881.793
69.32000 48801.969
69.36000 42656.203
69.40000 36647.574
69.44000 24757.352
69.48000 12727.466
69.52000 5823.138
69.56000 3180.462
69.60000 2134.832
69.64000 1702.851
69.68000 1453.506
69.72000 1273.953
69.76000 1145.608
69.80000 1051.579
69.84000 961.083
69.88000 926.867
69.92000 873.855
69.96000 826.361
70.00000 787.633