File: XRD/22-09-2025 Dep 2/XY Data/BTO_Mapping_Theta2Theta_22-09-2025_001_01_0-000_0-000.xy
20.00000 564.440
20.04000 570.735
20.08000 567.194
20.12000 539.926
20.16000 574.827
20.20000 562.375
20.24000 572.765
20.28000 573.052
20.32000 554.338
20.36000 553.034
20.40000 579.758
20.44000 574.045
20.48000 575.824
20.52000 536.572
20.56000 553.116
20.60000 561.853
20.64000 585.224
20.68000 547.236
20.72000 558.557
20.76000 542.920
20.80000 552.836
20.84000 546.401
20.88000 545.155
20.92000 571.818
20.96000 576.950
21.00000 563.702
21.04000 568.947
21.08000 552.586
21.12000 576.556
21.16000 546.944
21.20000 570.122
21.24000 585.425
21.28000 559.533
21.32000 561.536
21.36000 562.382
21.40000 539.801
21.44000 560.311
21.48000 570.211
21.52000 560.755
21.56000 579.451
21.60000 551.173
21.64000 581.089
21.68000 602.579
21.72000 596.581
21.76000 617.836
21.80000 640.954
21.84000 675.576
21.88000 735.419
21.92000 750.413
21.96000 791.830
22.00000 826.103
22.04000 841.284
22.08000 835.761
22.12000 810.930
22.16000 794.290
22.20000 722.434
22.24000 720.998
22.28000 671.124
22.32000 659.957
22.36000 629.268
22.40000 630.385
22.44000 574.257
22.48000 575.754
22.52000 568.025
22.56000 550.954
22.60000 553.316
22.64000 562.552
22.68000 543.735
22.72000 533.737
22.76000 532.814
22.80000 523.340
22.84000 545.853
22.88000 521.843
22.92000 521.638
22.96000 531.107
23.00000 529.372
23.04000 511.184
23.08000 534.282
23.12000 515.185
23.16000 535.855
23.20000 495.707
23.24000 512.919
23.28000 513.397
23.32000 513.728
23.36000 507.759
23.40000 516.221
23.44000 514.457
23.48000 506.041
23.52000 510.512
23.56000 508.078
23.60000 496.469
23.64000 490.736
23.68000 485.266
23.72000 495.243
23.76000 493.473
23.80000 514.916
23.84000 504.088
23.88000 507.527
23.92000 500.130
23.96000 502.157
24.00000 503.598
24.04000 495.386
24.08000 488.713
24.12000 483.926
24.16000 494.017
24.20000 508.492
24.24000 491.551
24.28000 470.940
24.32000 487.348
24.36000 477.224
24.40000 512.698
24.44000 484.932
24.48000 486.749
24.52000 475.854
24.56000 486.112
24.60000 486.746
24.64000 475.940
24.68000 469.065
24.72000 494.679
24.76000 482.764
24.80000 490.127
24.84000 459.740
24.88000 475.975
24.92000 473.594
24.96000 472.627
25.00000 478.250
25.04000 474.161
25.08000 494.449
25.12000 463.048
25.16000 476.225
25.20000 470.225
25.24000 474.721
25.28000 474.780
25.32000 465.721
25.36000 476.622
25.40000 464.546
25.44000 487.823
25.48000 464.766
25.52000 451.248
25.56000 480.551
25.60000 476.605
25.64000 457.020
25.68000 459.586
25.72000 476.742
25.76000 469.620
25.80000 469.148
25.84000 464.279
25.88000 475.900
25.92000 468.312
25.96000 465.843
26.00000 466.039
26.04000 449.458
26.08000 462.157
26.12000 461.059
26.16000 463.438
26.20000 457.282
26.24000 461.521
26.28000 464.834
26.32000 472.657
26.36000 457.437
26.40000 444.003
26.44000 448.084
26.48000 465.154
26.52000 461.889
26.56000 473.949
26.60000 458.687
26.64000 459.374
26.68000 422.655
26.72000 449.080
26.76000 448.274
26.80000 468.777
26.84000 453.021
26.88000 451.759
26.92000 457.843
26.96000 441.409
27.00000 449.060
27.04000 440.310
27.08000 438.566
27.12000 428.727
27.16000 443.349
27.20000 416.137
27.24000 441.099
27.28000 418.279
27.32000 457.009
27.36000 448.382
27.40000 425.298
27.44000 455.292
27.48000 441.827
27.52000 446.831
27.56000 436.101
27.60000 436.451
27.64000 432.938
27.68000 439.173
27.72000 464.012
27.76000 434.624
27.80000 435.171
27.84000 421.750
27.88000 426.924
27.92000 418.389
27.96000 428.615
28.00000 441.230
28.04000 425.585
28.08000 428.787
28.12000 437.268
28.16000 453.521
28.20000 433.260
28.24000 449.447
28.28000 436.608
28.32000 435.933
28.36000 433.035
28.40000 434.790
28.44000 404.575
28.48000 431.978
28.52000 433.750
28.56000 419.867
28.60000 431.987
28.64000 428.711
28.68000 435.533
28.72000 428.387
28.76000 418.909
28.80000 425.987
28.84000 427.812
28.88000 429.104
28.92000 421.962
28.96000 429.188
29.00000 416.838
29.04000 415.878
29.08000 429.738
29.12000 414.379
29.16000 414.983
29.20000 404.575
29.24000 411.658
29.28000 419.784
29.32000 424.164
29.36000 405.769
29.40000 426.219
29.44000 391.060
29.48000 413.891
29.52000 426.176
29.56000 425.500
29.60000 430.236
29.64000 426.482
29.68000 410.752
29.72000 426.542
29.76000 424.680
29.80000 440.576
29.84000 422.212
29.88000 425.957
29.92000 437.160
29.96000 463.361
30.00000 453.306
30.04000 451.173
30.08000 459.639
30.12000 463.408
30.16000 459.610
30.20000 446.964
30.24000 449.681
30.28000 453.745
30.32000 451.912
30.36000 435.529
30.40000 440.518
30.44000 434.115
30.48000 452.318
30.52000 440.211
30.56000 434.451
30.60000 446.728
30.64000 482.493
30.68000 460.768
30.72000 452.361
30.76000 462.467
30.80000 495.079
30.84000 504.264
30.88000 535.008
30.92000 549.820
30.96000 595.014
31.00000 642.993
31.04000 744.982
31.08000 840.369
31.12000 1044.470
31.16000 1303.665
31.20000 1738.291
31.24000 2182.803
31.28000 2643.817
31.32000 3121.271
31.36000 3438.986
31.40000 3460.659
31.44000 3343.368
31.48000 2980.833
31.52000 2537.160
31.56000 2052.095
31.60000 1613.358
31.64000 1269.042
31.68000 1027.024
31.72000 859.684
31.76000 746.457
31.80000 648.902
31.84000 595.694
31.88000 531.510
31.92000 513.057
31.96000 485.922
32.00000 452.464
32.04000 442.197
32.08000 432.155
32.12000 422.363
32.16000 422.778
32.20000 420.288
32.24000 423.783
32.28000 414.601
32.32000 392.861
32.36000 399.990
32.40000 401.406
32.44000 398.819
32.48000 394.574
32.52000 392.313
32.56000 397.111
32.60000 410.892
32.64000 384.048
32.68000 390.475
32.72000 392.131
32.76000 393.660
32.80000 385.868
32.84000 424.665
32.88000 436.621
32.92000 425.458
32.96000 425.760
33.00000 401.230
33.04000 415.931
33.08000 373.869
33.12000 381.306
33.16000 358.725
33.20000 365.165
33.24000 354.280
33.28000 351.485
33.32000 350.060
33.36000 357.441
33.40000 355.425
33.44000 351.964
33.48000 345.105
33.52000 347.290
33.56000 346.602
33.60000 348.534
33.64000 336.728
33.68000 349.691
33.72000 335.313
33.76000 344.379
33.80000 340.498
33.84000 337.611
33.88000 329.976
33.92000 342.959
33.96000 340.675
34.00000 330.302
34.04000 350.446
34.08000 346.670
34.12000 333.618
34.16000 338.024
34.20000 331.043
34.24000 338.301
34.28000 329.986
34.32000 320.958
34.36000 335.762
34.40000 341.580
34.44000 324.422
34.48000 327.645
34.52000 328.958
34.56000 328.682
34.60000 339.696
34.64000 345.628
34.68000 327.266
34.72000 338.301
34.76000 330.590
34.80000 334.860
34.84000 324.290
34.88000 310.901
34.92000 327.480
34.96000 331.804
35.00000 326.789
35.04000 323.770
35.08000 326.648
35.12000 332.166
35.16000 310.149
35.20000 312.915
35.24000 316.542
35.28000 315.677
35.32000 301.555
35.36000 320.910
35.40000 328.778
35.44000 321.040
35.48000 310.818
35.52000 311.980
35.56000 321.482
35.60000 306.911
35.64000 300.555
35.68000 297.233
35.72000 315.081
35.76000 309.716
35.80000 319.348
35.84000 297.989
35.88000 305.151
35.92000 296.902
35.96000 309.468
36.00000 302.418
36.04000 308.000
36.08000 293.269
36.12000 287.533
36.16000 310.752
36.20000 308.908
36.24000 306.329
36.28000 312.915
36.32000 296.539
36.36000 291.625
36.40000 286.748
36.44000 306.118
36.48000 297.145
36.52000 314.907
36.56000 296.706
36.60000 292.083
36.64000 297.391
36.68000 296.273
36.72000 297.630
36.76000 301.242
36.80000 294.334
36.84000 306.218
36.88000 299.692
36.92000 294.200
36.96000 302.080
37.00000 297.247
37.04000 307.219
37.08000 297.914
37.12000 297.646
37.16000 319.117
37.20000 313.632
37.24000 314.124
37.28000 295.251
37.32000 303.199
37.36000 300.534
37.40000 303.955
37.44000 302.488
37.48000 296.559
37.52000 295.429
37.56000 281.235
37.60000 298.529
37.64000 283.637
37.68000 297.106
37.72000 286.450
37.76000 295.241
37.80000 280.137
37.84000 299.058
37.88000 312.367
37.92000 308.668
37.96000 298.111
38.00000 294.312
38.04000 307.735
38.08000 306.849
38.12000 299.746
38.16000 317.240
38.20000 327.829
38.24000 327.800
38.28000 335.223
38.32000 349.360
38.36000 370.106
38.40000 391.908
38.44000 440.119
38.48000 488.060
38.52000 560.381
38.56000 661.601
38.60000 797.573
38.64000 877.656
38.68000 972.624
38.72000 971.978
38.76000 955.963
38.80000 855.900
38.84000 753.209
38.88000 671.434
38.92000 588.071
38.96000 480.588
39.00000 399.004
39.04000 372.877
39.08000 342.439
39.12000 330.764
39.16000 313.828
39.20000 323.191
39.24000 302.707
39.28000 304.126
39.32000 298.321
39.36000 287.705
39.40000 287.759
39.44000 294.461
39.48000 285.302
39.52000 284.564
39.56000 282.309
39.60000 275.025
39.64000 279.725
39.68000 263.648
39.72000 268.409
39.76000 268.500
39.80000 267.536
39.84000 270.510
39.88000 270.006
39.92000 249.078
39.96000 275.809
40.00000 267.119
40.04000 270.467
40.08000 278.088
40.12000 265.813
40.16000 254.466
40.20000 268.293
40.24000 272.449
40.28000 251.517
40.32000 261.653
40.36000 258.783
40.40000 256.042
40.44000 264.494
40.48000 266.610
40.52000 241.148
40.56000 270.104
40.60000 256.163
40.64000 247.895
40.68000 240.971
40.72000 257.520
40.76000 249.861
40.80000 262.159
40.84000 264.750
40.88000 263.717
40.92000 245.929
40.96000 245.856
41.00000 239.332
41.04000 254.263
41.08000 252.357
41.12000 251.648
41.16000 247.131
41.20000 247.503
41.24000 240.683
41.28000 243.327
41.32000 237.333
41.36000 248.961
41.40000 241.187
41.44000 248.186
41.48000 250.860
41.52000 232.457
41.56000 244.775
41.60000 248.139
41.64000 230.490
41.68000 248.003
41.72000 256.591
41.76000 246.076
41.80000 246.179
41.84000 243.511
41.88000 239.199
41.92000 229.664
41.96000 243.805
42.00000 243.323
42.04000 255.774
42.08000 227.692
42.12000 219.832
42.16000 239.279
42.20000 230.792
42.24000 233.560
42.28000 234.232
42.32000 226.552
42.36000 234.444
42.40000 239.661
42.44000 233.917
42.48000 225.528
42.52000 240.501
42.56000 235.285
42.60000 236.409
42.64000 229.391
42.68000 241.893
42.72000 226.262
42.76000 237.123
42.80000 241.148
42.84000 231.374
42.88000 243.427
42.92000 234.080
42.96000 234.110
43.00000 230.999
43.04000 237.943
43.08000 229.910
43.12000 229.267
43.16000 226.899
43.20000 234.758
43.24000 233.003
43.28000 235.482
43.32000 247.732
43.36000 226.926
43.40000 227.589
43.44000 215.112
43.48000 221.659
43.52000 233.121
43.56000 242.755
43.60000 220.883
43.64000 228.886
43.68000 238.399
43.72000 224.499
43.76000 226.556
43.80000 222.704
43.84000 228.607
43.88000 226.817
43.92000 230.645
43.96000 231.173
44.00000 221.852
44.04000 229.978
44.08000 234.328
44.12000 226.334
44.16000 230.252
44.20000 230.075
44.24000 238.614
44.28000 226.444
44.32000 235.612
44.36000 228.210
44.40000 225.632
44.44000 233.860
44.48000 233.560
44.52000 236.021
44.56000 254.851
44.60000 252.869
44.64000 248.481
44.68000 268.332
44.72000 292.287
44.76000 283.796
44.80000 320.105
44.84000 335.358
44.88000 352.223
44.92000 380.257
44.96000 412.494
45.00000 440.070
45.04000 451.118
45.08000 457.252
45.12000 440.007
45.16000 446.617
45.20000 422.731
45.24000 409.834
45.28000 396.870
45.32000 354.359
45.36000 341.700
45.40000 332.795
45.44000 322.890
45.48000 307.358
45.52000 274.048
45.56000 272.066
45.60000 270.575
45.64000 269.482
45.68000 259.644
45.72000 244.505
45.76000 242.188
45.80000 258.342
45.84000 232.608
45.88000 223.092
45.92000 226.414
45.96000 227.515
46.00000 221.664
46.04000 229.986
46.08000 222.144
46.12000 218.358
46.16000 210.975
46.20000 233.139
46.24000 205.273
46.28000 202.329
46.32000 198.589
46.36000 203.268
46.40000 211.323
46.44000 194.752
46.48000 201.708
46.52000 210.729
46.56000 208.284
46.60000 204.844
46.64000 212.437
46.68000 200.227
46.72000 190.579
46.76000 205.528
46.80000 205.627
46.84000 191.198
46.88000 192.793
46.92000 191.546
46.96000 205.259
47.00000 198.178
47.04000 196.965
47.08000 195.284
47.12000 192.362
47.16000 205.128
47.20000 189.637
47.24000 192.940
47.28000 196.703
47.32000 189.012
47.36000 191.336
47.40000 190.546
47.44000 181.133
47.48000 195.661
47.52000 193.557
47.56000 191.428
47.60000 195.568
47.64000 182.966
47.68000 179.917
47.72000 193.878
47.76000 183.636
47.80000 173.438
47.84000 180.941
47.88000 183.672
47.92000 192.312
47.96000 193.309
48.00000 179.407
48.04000 181.045
48.08000 174.454
48.12000 195.360
48.16000 187.923
48.20000 185.790
48.24000 186.510
48.28000 190.583
48.32000 181.351
48.36000 190.784
48.40000 190.551
48.44000 192.519
48.48000 176.181
48.52000 176.200
48.56000 192.499
48.60000 191.679
48.64000 174.005
48.68000 171.112
48.72000 181.787
48.76000 192.461
48.80000 195.839
48.84000 188.080
48.88000 174.630
48.92000 178.165
48.96000 185.474
49.00000 177.499
49.04000 170.357
49.08000 184.708
49.12000 168.201
49.16000 190.574
49.20000 179.714
49.24000 177.086
49.28000 178.277
49.32000 183.533
49.36000 170.511
49.40000 175.778
49.44000 172.424
49.48000 164.678
49.52000 166.640
49.56000 170.537
49.60000 172.900
49.64000 175.978
49.68000 184.303
49.72000 164.473
49.76000 163.107
49.80000 182.000
49.84000 182.107
49.88000 165.956
49.92000 184.425
49.96000 178.826
50.00000 187.332
50.04000 177.299
50.08000 173.800
50.12000 175.576
50.16000 182.478
50.20000 179.496
50.24000 179.464
50.28000 169.654
50.32000 186.462
50.36000 186.926
50.40000 202.685
50.44000 209.779
50.48000 226.209
50.52000 206.448
50.56000 235.025
50.60000 236.048
50.64000 249.419
50.68000 260.193
50.72000 251.449
50.76000 251.011
50.80000 259.811
50.84000 243.306
50.88000 240.695
50.92000 222.678
50.96000 224.420
51.00000 222.257
51.04000 201.525
51.08000 203.531
51.12000 200.112
51.16000 195.118
51.20000 186.891
51.24000 178.605
51.28000 181.058
51.32000 181.376
51.36000 177.134
51.40000 173.923
51.44000 189.671
51.48000 175.829
51.52000 165.014
51.56000 172.152
51.60000 170.499
51.64000 165.042
51.68000 171.697
51.72000 179.896
51.76000 167.626
51.80000 164.721
51.84000 170.205
51.88000 183.706
51.92000 164.973
51.96000 156.973
52.00000 164.797
52.04000 163.186
52.08000 161.958
52.12000 158.450
52.16000 166.277
52.20000 174.468
52.24000 160.926
52.28000 145.613
52.32000 165.799
52.36000 155.970
52.40000 161.271
52.44000 159.744
52.48000 160.363
52.52000 161.668
52.56000 158.347
52.60000 158.376
52.64000 159.802
52.68000 162.300
52.72000 156.028
52.76000 151.975
52.80000 147.436
52.84000 168.164
52.88000 154.682
52.92000 158.485
52.96000 156.195
53.00000 160.799
53.04000 159.143
53.08000 161.964
53.12000 143.188
53.16000 155.668
53.20000 153.365
53.24000 168.390
53.28000 158.229
53.32000 171.011
53.36000 161.445
53.40000 161.788
53.44000 159.353
53.48000 156.931
53.52000 162.989
53.56000 157.630
53.60000 164.373
53.64000 167.804
53.68000 158.036
53.72000 171.933
53.76000 161.641
53.80000 145.706
53.84000 160.205
53.88000 151.305
53.92000 163.358
53.96000 155.188
54.00000 158.275
54.04000 149.216
54.08000 156.115
54.12000 152.164
54.16000 160.029
54.20000 147.952
54.24000 148.197
54.28000 153.457
54.32000 167.283
54.36000 154.130
54.40000 159.895
54.44000 158.176
54.48000 155.420
54.52000 166.160
54.56000 160.267
54.60000 164.316
54.64000 160.723
54.68000 153.546
54.72000 160.779
54.76000 161.373
54.80000 165.804
54.84000 164.725
54.88000 164.110
54.92000 159.272
54.96000 154.867
55.00000 165.633
55.04000 164.470
55.08000 163.641
55.12000 163.089
55.16000 161.581
55.20000 160.545
55.24000 172.865
55.28000 179.605
55.32000 172.789
55.36000 186.254
55.40000 181.057
55.44000 184.183
55.48000 199.399
55.52000 213.169
55.56000 221.568
55.60000 242.970
55.64000 260.998
55.68000 282.898
55.72000 329.076
55.76000 377.341
55.80000 441.059
55.84000 475.319
55.88000 504.732
55.92000 540.264
55.96000 576.140
56.00000 557.201
56.04000 546.367
56.08000 501.866
56.12000 459.856
56.16000 411.056
56.20000 363.632
56.24000 321.308
56.28000 313.168
56.32000 264.195
56.36000 251.443
56.40000 238.142
56.44000 223.400
56.48000 213.292
56.52000 185.904
56.56000 184.418
56.60000 181.095
56.64000 175.190
56.68000 177.470
56.72000 168.954
56.76000 174.381
56.80000 162.483
56.84000 164.540
56.88000 160.146
56.92000 158.658
56.96000 161.672
57.00000 155.246
57.04000 155.656
57.08000 143.959
57.12000 149.394
57.16000 147.279
57.20000 153.574
57.24000 144.395
57.28000 143.025
57.32000 155.500
57.36000 147.048
57.40000 146.174
57.44000 148.363
57.48000 152.691
57.52000 141.500
57.56000 140.666
57.60000 140.101
57.64000 146.362
57.68000 144.963
57.72000 144.344
57.76000 144.974
57.80000 140.569
57.84000 144.557
57.88000 143.637
57.92000 144.715
57.96000 140.303
58.00000 136.805
58.04000 148.116
58.08000 141.174
58.12000 141.139
58.16000 142.861
58.20000 146.414
58.24000 144.981
58.28000 139.005
58.32000 126.250
58.36000 142.052
58.40000 136.357
58.44000 143.977
58.48000 142.602
58.52000 136.635
58.56000 130.405
58.60000 133.489
58.64000 126.247
58.68000 136.533
58.72000 129.779
58.76000 140.450
58.80000 138.782
58.84000 140.250
58.88000 139.472
58.92000 139.061
58.96000 134.212
59.00000 141.895
59.04000 141.822
59.08000 135.124
59.12000 137.510
59.16000 132.625
59.20000 134.744
59.24000 143.121
59.28000 131.753
59.32000 134.189
59.36000 129.614
59.40000 126.946
59.44000 134.295
59.48000 133.637
59.52000 126.895
59.56000 136.396
59.60000 133.809
59.64000 133.114
59.68000 134.037
59.72000 134.199
59.76000 144.875
59.80000 144.266
59.84000 136.621
59.88000 133.275
59.92000 139.717
59.96000 133.869
60.00000 148.393
60.04000 142.822
60.08000 143.576
60.12000 145.743
60.16000 135.842
60.20000 130.875
60.24000 139.479
60.28000 133.993
60.32000 133.167
60.36000 138.157
60.40000 135.623
60.44000 129.819
60.48000 139.769
60.52000 126.841
60.56000 134.908
60.60000 134.057
60.64000 127.119
60.68000 136.791
60.72000 138.135
60.76000 136.513
60.80000 123.351
60.84000 129.189
60.88000 133.761
60.92000 122.983
60.96000 133.576
61.00000 131.508
61.04000 136.992
61.08000 139.449
61.12000 132.390
61.16000 134.919
61.20000 133.416
61.24000 136.550
61.28000 136.674
61.32000 134.803
61.36000 136.037
61.40000 143.512
61.44000 135.261
61.48000 158.112
61.52000 185.800
61.56000 251.812
61.60000 282.885
61.64000 323.065
61.68000 332.839
61.72000 338.034
61.76000 308.818
61.80000 242.699
61.84000 189.412
61.88000 164.142
61.92000 151.225
61.96000 144.305
62.00000 141.374
62.04000 144.347
62.08000 137.808
62.12000 144.150
62.16000 138.432
62.20000 146.787
62.24000 146.649
62.28000 149.326
62.32000 128.924
62.36000 136.066
62.40000 151.672
62.44000 149.930
62.48000 155.899
62.52000 147.405
62.56000 149.380
62.60000 142.787
62.64000 143.526
62.68000 132.736
62.72000 149.088
62.76000 145.504
62.80000 137.974
62.84000 144.124
62.88000 144.051
62.92000 129.112
62.96000 149.585
63.00000 147.641
63.04000 155.452
63.08000 140.798
63.12000 150.851
63.16000 167.426
63.20000 157.567
63.24000 144.382
63.28000 147.548
63.32000 135.073
63.36000 154.897
63.40000 149.232
63.44000 141.879
63.48000 140.996
63.52000 141.640
63.56000 167.476
63.60000 150.456
63.64000 168.220
63.68000 152.392
63.72000 154.992
63.76000 146.117
63.80000 154.166
63.84000 159.617
63.88000 157.920
63.92000 150.100
63.96000 164.452
64.00000 159.062
64.04000 149.658
64.08000 160.562
64.12000 160.208
64.16000 159.887
64.20000 163.290
64.24000 160.867
64.28000 172.160
64.32000 167.824
64.36000 176.775
64.40000 161.925
64.44000 166.405
64.48000 166.897
64.52000 167.284
64.56000 171.930
64.60000 175.814
64.64000 177.249
64.68000 184.596
64.72000 178.904
64.76000 188.061
64.80000 180.636
64.84000 185.802
64.88000 182.641
64.92000 182.903
64.96000 196.104
65.00000 195.773
65.04000 203.960
65.08000 223.951
65.12000 214.517
65.16000 235.057
65.20000 234.405
65.24000 250.760
65.28000 278.293
65.32000 304.395
65.36000 302.832
65.40000 345.044
65.44000 389.132
65.48000 392.616
65.52000 410.392
65.56000 445.103
65.60000 466.033
65.64000 519.019
65.68000 606.935
65.72000 820.180
65.76000 1092.036
65.80000 1287.393
65.84000 1413.851
65.88000 1421.418
65.92000 1341.901
65.96000 1167.565
66.00000 779.126
66.04000 558.612
66.08000 415.751
66.12000 361.031
66.16000 356.873
66.20000 353.976
66.24000 367.213
66.28000 426.436
66.32000 459.413
66.36000 508.096
66.40000 546.713
66.44000 543.585
66.48000 490.760
66.52000 467.978
66.56000 413.952
66.60000 377.861
66.64000 368.974
66.68000 362.427
66.72000 355.083
66.76000 348.817
66.80000 343.689
66.84000 354.971
66.88000 360.452
66.92000 360.435
66.96000 362.912
67.00000 376.874
67.04000 363.601
67.08000 373.628
67.12000 390.241
67.16000 398.757
67.20000 397.387
67.24000 424.878
67.28000 415.714
67.32000 425.978
67.36000 440.129
67.40000 451.725
67.44000 468.436
67.48000 459.460
67.52000 454.307
67.56000 475.725
67.60000 476.301
67.64000 505.472
67.68000 521.045
67.72000 505.907
67.76000 527.116
67.80000 541.544
67.84000 558.425
67.88000 554.787
67.92000 569.936
67.96000 572.455
68.00000 602.165
68.04000 583.567
68.08000 605.501
68.12000 646.661
68.16000 664.514
68.20000 660.148
68.24000 694.321
68.28000 707.877
68.32000 723.073
68.36000 751.639
68.40000 792.776
68.44000 828.171
68.48000 899.509
68.52000 932.447
68.56000 987.544
68.60000 1190.940
68.64000 1379.492
68.68000 1698.745
68.72000 1981.374
68.76000 2304.908
68.80000 2743.798
68.84000 3404.232
68.88000 4644.470
68.92000 8882.515
68.96000 20646.953
69.00000 43573.461
69.04000 65689.766
69.08000 76277.344
69.12000 79614.063
69.16000 82779.922
69.20000 81045.078
69.24000 66670.273
69.28000 51281.914
69.32000 42833.656
69.36000 37963.121
69.40000 30619.148
69.44000 18232.455
69.48000 8460.630
69.52000 3949.666
69.56000 2393.613
69.60000 1778.637
69.64000 1501.013
69.68000 1329.973
69.72000 1153.104
69.76000 1066.589
69.80000 960.562
69.84000 928.958
69.88000 870.463
69.92000 817.560
69.96000 783.044
70.00000 767.293