File: XRD/22-09-2025 Dep 2/XY Data/BTO_Mapping_Theta2Theta_22-09-2025_001_21_11-126_48-746.xy
20.00000 2342.627
20.04000 2339.885
20.08000 2323.438
20.12000 2335.822
20.16000 2363.117
20.20000 2404.883
20.24000 2383.788
20.28000 2357.900
20.32000 2379.287
20.36000 2350.593
20.40000 2326.019
20.44000 2366.264
20.48000 2352.780
20.52000 2343.367
20.56000 2364.349
20.60000 2347.119
20.64000 2321.297
20.68000 2350.267
20.72000 2351.187
20.76000 2333.407
20.80000 2363.247
20.84000 2364.397
20.88000 2389.809
20.92000 2387.766
20.96000 2382.831
21.00000 2373.837
21.04000 2366.324
21.08000 2386.480
21.12000 2323.797
21.16000 2395.060
21.20000 2378.192
21.24000 2328.713
21.28000 2387.975
21.32000 2377.610
21.36000 2408.526
21.40000 2405.944
21.44000 2381.330
21.48000 2383.979
21.52000 2392.684
21.56000 2397.390
21.60000 2395.554
21.64000 2405.855
21.68000 2377.996
21.72000 2396.690
21.76000 2413.254
21.80000 2382.912
21.84000 2386.124
21.88000 2364.860
21.92000 2374.963
21.96000 2425.744
22.00000 2374.006
22.04000 2356.007
22.08000 2359.788
22.12000 2393.172
22.16000 2419.405
22.20000 2357.720
22.24000 2408.575
22.28000 2436.390
22.32000 2423.854
22.36000 2383.107
22.40000 2398.241
22.44000 2407.041
22.48000 2390.997
22.52000 2395.909
22.56000 2407.287
22.60000 2461.953
22.64000 2361.151
22.68000 2385.828
22.72000 2398.020
22.76000 2343.477
22.80000 2414.043
22.84000 2418.260
22.88000 2422.511
22.92000 2399.752
22.96000 2406.131
23.00000 2421.104
23.04000 2427.567
23.08000 2450.036
23.12000 2443.300
23.16000 2402.576
23.20000 2414.385
23.24000 2418.552
23.28000 2427.303
23.32000 2410.161
23.36000 2420.904
23.40000 2444.487
23.44000 2408.111
23.48000 2441.368
23.52000 2428.677
23.56000 2439.557
23.60000 2432.362
23.64000 2471.874
23.68000 2402.009
23.72000 2410.990
23.76000 2450.853
23.80000 2452.954
23.84000 2404.510
23.88000 2409.555
23.92000 2436.771
23.96000 2416.809
24.00000 2455.598
24.04000 2467.641
24.08000 2432.869
24.12000 2417.321
24.16000 2449.584
24.20000 2431.259
24.24000 2468.201
24.28000 2459.805
24.32000 2452.519
24.36000 2456.959
24.40000 2390.000
24.44000 2417.657
24.48000 2439.572
24.52000 2430.060
24.56000 2441.664
24.60000 2467.983
24.64000 2468.846
24.68000 2426.331
24.72000 2501.522
24.76000 2442.812
24.80000 2424.626
24.84000 2443.774
24.88000 2489.551
24.92000 2479.767
24.96000 2487.396
25.00000 2458.546
25.04000 2443.575
25.08000 2446.540
25.12000 2435.923
25.16000 2473.824
25.20000 2493.558
25.24000 2491.819
25.28000 2460.687
25.32000 2483.927
25.36000 2497.535
25.40000 2453.741
25.44000 2480.986
25.48000 2472.856
25.52000 2505.458
25.56000 2472.443
25.60000 2453.367
25.64000 2445.474
25.68000 2474.201
25.72000 2498.140
25.76000 2484.577
25.80000 2485.615
25.84000 2514.714
25.88000 2472.141
25.92000 2482.942
25.96000 2513.240
26.00000 2482.042
26.04000 2481.537
26.08000 2457.735
26.12000 2485.037
26.16000 2523.975
26.20000 2443.722
26.24000 2508.529
26.28000 2505.195
26.32000 2470.154
26.36000 2471.329
26.40000 2450.622
26.44000 2454.105
26.48000 2410.918
26.52000 2476.555
26.56000 2491.429
26.60000 2415.400
26.64000 2478.910
26.68000 2493.997
26.72000 2492.329
26.76000 2451.725
26.80000 2483.943
26.84000 2482.205
26.88000 2470.901
26.92000 2481.386
26.96000 2543.981
27.00000 2467.318
27.04000 2478.746
27.08000 2478.583
27.12000 2456.477
27.16000 2465.544
27.20000 2482.101
27.24000 2461.696
27.28000 2483.426
27.32000 2471.051
27.36000 2470.724
27.40000 2456.524
27.44000 2492.276
27.48000 2497.393
27.52000 2510.832
27.56000 2448.869
27.60000 2474.845
27.64000 2471.845
27.68000 2510.279
27.72000 2503.870
27.76000 2483.328
27.80000 2499.115
27.84000 2490.366
27.88000 2515.458
27.92000 2467.869
27.96000 2484.306
28.00000 2485.622
28.04000 2501.525
28.08000 2496.767
28.12000 2524.319
28.16000 2477.945
28.20000 2466.150
28.24000 2495.079
28.28000 2464.866
28.32000 2511.073
28.36000 2527.728
28.40000 2521.929
28.44000 2505.287
28.48000 2497.985
28.52000 2497.535
28.56000 2513.858
28.60000 2474.399
28.64000 2506.228
28.68000 2493.734
28.72000 2543.572
28.76000 2493.635
28.80000 2479.842
28.84000 2471.719
28.88000 2537.707
28.92000 2458.565
28.96000 2517.985
29.00000 2487.276
29.04000 2482.505
29.08000 2514.166
29.12000 2540.004
29.16000 2537.117
29.20000 2527.735
29.24000 2546.614
29.28000 2477.562
29.32000 2508.830
29.36000 2517.597
29.40000 2486.912
29.44000 2514.296
29.48000 2490.601
29.52000 2510.920
29.56000 2490.827
29.60000 2485.738
29.64000 2490.709
29.68000 2501.401
29.72000 2483.949
29.76000 2493.687
29.80000 2505.388
29.84000 2512.400
29.88000 2473.092
29.92000 2515.168
29.96000 2514.820
30.00000 2486.760
30.04000 2496.599
30.08000 2480.738
30.12000 2522.694
30.16000 2472.791
30.20000 2482.155
30.24000 2528.315
30.28000 2476.945
30.32000 2518.493
30.36000 2483.197
30.40000 2535.401
30.44000 2479.486
30.48000 2504.208
30.52000 2505.275
30.56000 2524.076
30.60000 2520.030
30.64000 2453.328
30.68000 2496.631
30.72000 2523.345
30.76000 2472.678
30.80000 2481.512
30.84000 2525.765
30.88000 2472.838
30.92000 2489.143
30.96000 2551.015
31.00000 2470.708
31.04000 2499.216
31.08000 2492.779
31.12000 2501.647
31.16000 2524.364
31.20000 2521.083
31.24000 2532.098
31.28000 2469.321
31.32000 2546.498
31.36000 2514.958
31.40000 2475.714
31.44000 2484.971
31.48000 2529.150
31.52000 2501.525
31.56000 2525.545
31.60000 2497.699
31.64000 2499.370
31.68000 2516.328
31.72000 2539.922
31.76000 2457.727
31.80000 2500.373
31.84000 2528.195
31.88000 2533.479
31.92000 2495.922
31.96000 2499.597
32.00000 2483.745
32.04000 2472.520
32.08000 2489.787
32.12000 2461.619
32.16000 2520.691
32.20000 2536.500
32.24000 2529.068
32.28000 2494.446
32.32000 2457.921
32.36000 2533.632
32.40000 2531.288
32.44000 2500.377
32.48000 2491.041
32.52000 2472.383
32.56000 2494.564
32.60000 2478.637
32.64000 2476.381
32.68000 2485.312
32.72000 2544.370
32.76000 2459.854
32.80000 2477.444
32.84000 2473.868
32.88000 2501.240
32.92000 2521.840
32.96000 2556.778
33.00000 2505.417
33.04000 2548.468
33.08000 2483.521
33.12000 2516.215
33.16000 2514.957
33.20000 2446.018
33.24000 2510.875
33.28000 2509.237
33.32000 2465.031
33.36000 2440.149
33.40000 2464.496
33.44000 2529.997
33.48000 2487.352
33.52000 2500.358
33.56000 2480.646
33.60000 2481.975
33.64000 2492.290
33.68000 2438.588
33.72000 2484.024
33.76000 2496.379
33.80000 2513.296
33.84000 2490.958
33.88000 2515.879
33.92000 2471.349
33.96000 2468.419
34.00000 2485.908
34.04000 2517.017
34.08000 2502.468
34.12000 2501.139
34.16000 2458.213
34.20000 2489.454
34.24000 2476.090
34.28000 2474.115
34.32000 2450.062
34.36000 2482.819
34.40000 2480.777
34.44000 2450.326
34.48000 2501.323
34.52000 2484.513
34.56000 2506.096
34.60000 2477.617
34.64000 2474.198
34.68000 2495.675
34.72000 2465.318
34.76000 2523.529
34.80000 2488.998
34.84000 2496.512
34.88000 2458.979
34.92000 2453.528
34.96000 2482.701
35.00000 2441.245
35.04000 2459.910
35.08000 2463.101
35.12000 2473.490
35.16000 2436.959
35.20000 2496.959
35.24000 2509.671
35.28000 2500.633
35.32000 2498.664
35.36000 2440.670
35.40000 2488.073
35.44000 2499.692
35.48000 2517.425
35.52000 2470.024
35.56000 2408.659
35.60000 2486.141
35.64000 2456.786
35.68000 2481.336
35.72000 2469.159
35.76000 2445.622
35.80000 2480.532
35.84000 2473.712
35.88000 2468.445
35.92000 2485.412
35.96000 2514.958
36.00000 2461.263
36.04000 2473.390
36.08000 2487.436
36.12000 2470.741
36.16000 2454.977
36.20000 2471.317
36.24000 2448.902
36.28000 2483.447
36.32000 2509.575
36.36000 2483.291
36.40000 2432.466
36.44000 2463.539
36.48000 2436.912
36.52000 2456.268
36.56000 2464.862
36.60000 2484.761
36.64000 2477.211
36.68000 2430.713
36.72000 2518.789
36.76000 2493.245
36.80000 2485.920
36.84000 2467.854
36.88000 2471.456
36.92000 2500.966
36.96000 2415.970
37.00000 2434.315
37.04000 2478.719
37.08000 2450.590
37.12000 2439.763
37.16000 2506.167
37.20000 2513.176
37.24000 2506.437
37.28000 2430.555
37.32000 2453.374
37.36000 2461.447
37.40000 2477.443
37.44000 2469.815
37.48000 2462.579
37.52000 2423.316
37.56000 2462.844
37.60000 2468.837
37.64000 2494.873
37.68000 2488.073
37.72000 2477.806
37.76000 2453.402
37.80000 2463.153
37.84000 2480.101
37.88000 2421.503
37.92000 2455.505
37.96000 2509.388
38.00000 2491.197
38.04000 2475.738
38.08000 2423.461
38.12000 2500.433
38.16000 2447.283
38.20000 2456.492
38.24000 2435.462
38.28000 2430.673
38.32000 2459.613
38.36000 2461.428
38.40000 2450.745
38.44000 2442.659
38.48000 2453.867
38.52000 2419.336
38.56000 2397.464
38.60000 2429.547
38.64000 2453.009
38.68000 2451.494
38.72000 2458.437
38.76000 2483.786
38.80000 2493.928
38.84000 2454.097
38.88000 2465.253
38.92000 2456.197
38.96000 2411.879
39.00000 2452.132
39.04000 2432.501
39.08000 2443.961
39.12000 2482.421
39.16000 2433.058
39.20000 2485.116
39.24000 2445.791
39.28000 2431.963
39.32000 2431.461
39.36000 2400.966
39.40000 2450.495
39.44000 2435.939
39.48000 2434.303
39.52000 2437.960
39.56000 2430.277
39.60000 2484.542
39.64000 2492.041
39.68000 2457.579
39.72000 2434.730
39.76000 2466.596
39.80000 2463.152
39.84000 2480.289
39.88000 2474.614
39.92000 2454.582
39.96000 2465.034
40.00000 2474.780
40.04000 2454.373
40.08000 2441.072
40.12000 2421.065
40.16000 2430.500
40.20000 2433.342
40.24000 2453.619
40.28000 2418.170
40.32000 2431.115
40.36000 2475.925
40.40000 2466.883
40.44000 2406.111
40.48000 2407.158
40.52000 2433.634
40.56000 2449.645
40.60000 2383.631
40.64000 2394.894
40.68000 2487.396
40.72000 2415.625
40.76000 2422.387
40.80000 2427.236
40.84000 2431.540
40.88000 2440.874
40.92000 2431.828
40.96000 2420.223
41.00000 2442.197
41.04000 2420.438
41.08000 2472.233
41.12000 2432.589
41.16000 2444.065
41.20000 2460.442
41.24000 2436.991
41.28000 2466.610
41.32000 2435.682
41.36000 2454.385
41.40000 2486.868
41.44000 2460.902
41.48000 2470.568
41.52000 2462.801
41.56000 2462.502
41.60000 2427.896
41.64000 2461.373
41.68000 2435.911
41.72000 2417.445
41.76000 2437.378
41.80000 2439.826
41.84000 2391.190
41.88000 2449.720
41.92000 2454.938
41.96000 2455.768
42.00000 2450.412
42.04000 2493.926
42.08000 2465.730
42.12000 2511.493
42.16000 2524.792
42.20000 2505.828
42.24000 2491.576
42.28000 2509.039
42.32000 2525.960
42.36000 2453.966
42.40000 2511.073
42.44000 2462.054
42.48000 2490.264
42.52000 2449.551
42.56000 2452.457
42.60000 2473.281
42.64000 2474.915
42.68000 2491.306
42.72000 2490.822
42.76000 2471.814
42.80000 2463.853
42.84000 2445.118
42.88000 2459.931
42.92000 2473.183
42.96000 2459.366
43.00000 2491.750
43.04000 2486.063
43.08000 2519.376
43.12000 2475.077
43.16000 2458.677
43.20000 2514.808
43.24000 2531.861
43.28000 2493.066
43.32000 2482.173
43.36000 2530.422
43.40000 2497.768
43.44000 2561.407
43.48000 2606.520
43.52000 2622.130
43.56000 2602.016
43.60000 2615.585
43.64000 2719.629
43.68000 2720.407
43.72000 2844.750
43.76000 2886.246
43.80000 3024.256
43.84000 3184.257
43.88000 3410.910
43.92000 3644.790
43.96000 4110.467
44.00000 4671.466
44.04000 5370.283
44.08000 6206.547
44.12000 7011.928
44.16000 7877.601
44.20000 8535.921
44.24000 8782.401
44.28000 8719.651
44.32000 8289.836
44.36000 7614.332
44.40000 6779.672
44.44000 6007.679
44.48000 5084.286
44.52000 4469.223
44.56000 4009.728
44.60000 3577.189
44.64000 3224.771
44.68000 3009.405
44.72000 2914.925
44.76000 2823.756
44.80000 2730.448
44.84000 2693.510
44.88000 2588.554
44.92000 2612.976
44.96000 2555.429
45.00000 2540.990
45.04000 2530.907
45.08000 2523.971
45.12000 2487.823
45.16000 2485.815
45.20000 2423.485
45.24000 2419.639
45.28000 2448.348
45.32000 2493.787
45.36000 2505.109
45.40000 2459.529
45.44000 2437.734
45.48000 2486.453
45.52000 2406.321
45.56000 2434.593
45.60000 2402.826
45.64000 2413.475
45.68000 2405.542
45.72000 2422.118
45.76000 2401.235
45.80000 2370.295
45.84000 2447.743
45.88000 2402.431
45.92000 2416.199
45.96000 2407.642
46.00000 2409.129
46.04000 2425.219
46.08000 2416.244
46.12000 2414.562
46.16000 2403.002
46.20000 2357.548
46.24000 2424.659
46.28000 2409.991
46.32000 2402.722
46.36000 2383.348
46.40000 2377.050
46.44000 2371.767
46.48000 2380.820
46.52000 2373.116
46.56000 2347.415
46.60000 2379.410
46.64000 2381.551
46.68000 2400.974
46.72000 2393.969
46.76000 2377.157
46.80000 2394.174
46.84000 2346.692
46.88000 2370.728
46.92000 2370.075
46.96000 2345.903
47.00000 2393.306
47.04000 2388.458
47.08000 2367.644
47.12000 2411.918
47.16000 2355.583
47.20000 2381.829
47.24000 2406.460
47.28000 2375.791
47.32000 2386.083
47.36000 2355.850
47.40000 2385.920
47.44000 2373.091
47.48000 2359.830
47.52000 2377.622
47.56000 2396.541
47.60000 2397.756
47.64000 2418.177
47.68000 2374.756
47.72000 2371.415
47.76000 2349.421
47.80000 2352.340
47.84000 2387.606
47.88000 2407.798
47.92000 2404.265
47.96000 2385.763
48.00000 2388.632
48.04000 2373.176
48.08000 2408.409
48.12000 2419.233
48.16000 2396.342
48.20000 2416.140
48.24000 2388.670
48.28000 2370.252
48.32000 2379.464
48.36000 2353.567
48.40000 2427.217
48.44000 2362.961
48.48000 2373.681
48.52000 2376.875
48.56000 2381.903
48.60000 2379.414
48.64000 2356.158
48.68000 2336.927
48.72000 2408.745
48.76000 2379.376
48.80000 2360.001
48.84000 2323.030
48.88000 2368.588
48.92000 2333.076
48.96000 2375.881
49.00000 2357.444
49.04000 2414.122
49.08000 2384.361
49.12000 2349.460
49.16000 2362.338
49.20000 2351.715
49.24000 2354.022
49.28000 2338.956
49.32000 2353.779
49.36000 2382.221
49.40000 2364.198
49.44000 2370.438
49.48000 2315.451
49.52000 2351.790
49.56000 2364.679
49.60000 2363.729
49.64000 2401.615
49.68000 2404.100
49.72000 2381.815
49.76000 2332.970
49.80000 2319.033
49.84000 2359.043
49.88000 2367.590
49.92000 2386.472
49.96000 2365.375
50.00000 2356.325
50.04000 2378.247
50.08000 2326.749
50.12000 2338.664
50.16000 2388.052
50.20000 2368.765
50.24000 2358.571
50.28000 2353.519
50.32000 2384.684
50.36000 2393.036
50.40000 2437.469
50.44000 2373.245
50.48000 2321.603
50.52000 2385.805
50.56000 2359.417
50.60000 2337.510
50.64000 2340.130
50.68000 2334.911
50.72000 2377.440
50.76000 2366.107
50.80000 2325.150
50.84000 2394.032
50.88000 2354.105
50.92000 2341.184
50.96000 2369.021
51.00000 2339.786
51.04000 2326.007
51.08000 2388.219
51.12000 2360.033
51.16000 2348.233
51.20000 2349.315
51.24000 2352.552
51.28000 2336.448
51.32000 2324.056
51.36000 2328.114
51.40000 2338.605
51.44000 2343.359
51.48000 2359.247
51.52000 2345.695
51.56000 2357.006
51.60000 2368.165
51.64000 2353.164
51.68000 2376.140
51.72000 2365.857
51.76000 2336.743
51.80000 2339.430
51.84000 2356.475
51.88000 2327.623
51.92000 2299.417
51.96000 2300.128
52.00000 2366.388
52.04000 2329.104
52.08000 2326.596
52.12000 2359.203
52.16000 2283.799
52.20000 2342.651
52.24000 2426.051
52.28000 2339.829
52.32000 2338.287
52.36000 2300.783
52.40000 2330.545
52.44000 2317.296
52.48000 2337.634
52.52000 2323.252
52.56000 2378.301
52.60000 2340.163
52.64000 2319.422
52.68000 2347.085
52.72000 2343.503
52.76000 2329.110
52.80000 2360.421
52.84000 2332.881
52.88000 2311.736
52.92000 2348.392
52.96000 2376.241
53.00000 2381.967
53.04000 2325.434
53.08000 2350.665
53.12000 2328.583
53.16000 2368.361
53.20000 2353.443
53.24000 2360.114
53.28000 2343.692
53.32000 2335.274
53.36000 2350.735
53.40000 2325.464
53.44000 2357.494
53.48000 2328.284
53.52000 2314.501
53.56000 2326.906
53.60000 2342.100
53.64000 2328.215
53.68000 2327.232
53.72000 2347.386
53.76000 2328.600
53.80000 2339.267
53.84000 2344.927
53.88000 2346.419
53.92000 2320.897
53.96000 2360.459
54.00000 2367.620
54.04000 2354.852
54.08000 2326.852
54.12000 2324.299
54.16000 2388.848
54.20000 2338.572
54.24000 2349.399
54.28000 2360.228
54.32000 2328.904
54.36000 2344.625
54.40000 2351.970
54.44000 2318.998
54.48000 2345.367
54.52000 2348.305
54.56000 2373.729
54.60000 2334.722
54.64000 2358.342
54.68000 2295.907
54.72000 2328.961
54.76000 2328.800
54.80000 2375.114
54.84000 2337.041
54.88000 2330.829
54.92000 2348.330
54.96000 2340.963
55.00000 2305.811
55.04000 2358.411
55.08000 2383.649
55.12000 2294.441
55.16000 2277.332
55.20000 2381.102
55.24000 2300.941
55.28000 2332.831
55.32000 2312.546
55.36000 2309.265
55.40000 2287.785
55.44000 2344.385
55.48000 2331.986
55.52000 2352.777
55.56000 2385.477
55.60000 2327.606
55.64000 2336.686
55.68000 2316.539
55.72000 2349.129
55.76000 2323.436
55.80000 2311.701
55.84000 2335.469
55.88000 2345.368
55.92000 2344.818
55.96000 2332.997
56.00000 2359.512
56.04000 2351.139
56.08000 2326.293
56.12000 2333.109
56.16000 2345.901
56.20000 2323.092
56.24000 2307.731
56.28000 2318.413
56.32000 2343.345
56.36000 2304.050
56.40000 2319.129
56.44000 2330.201
56.48000 2351.652
56.52000 2334.859
56.56000 2298.440
56.60000 2340.125
56.64000 2361.605
56.68000 2306.845
56.72000 2297.627
56.76000 2278.668
56.80000 2338.581
56.84000 2308.823
56.88000 2335.405
56.92000 2340.695
56.96000 2320.029
57.00000 2305.526
57.04000 2313.964
57.08000 2350.132
57.12000 2331.115
57.16000 2311.911
57.20000 2347.163
57.24000 2367.825
57.28000 2334.462
57.32000 2308.097
57.36000 2343.572
57.40000 2304.929
57.44000 2331.487
57.48000 2329.736
57.52000 2309.482
57.56000 2330.727
57.60000 2334.284
57.64000 2305.068
57.68000 2325.144
57.72000 2278.906
57.76000 2330.768
57.80000 2368.039
57.84000 2307.713
57.88000 2337.073
57.92000 2303.315
57.96000 2282.654
58.00000 2282.965
58.04000 2323.678
58.08000 2356.657
58.12000 2319.174
58.16000 2314.672
58.20000 2333.733
58.24000 2338.206
58.28000 2331.616
58.32000 2279.156
58.36000 2337.752
58.40000 2314.528
58.44000 2327.036
58.48000 2338.375
58.52000 2337.375
58.56000 2296.936
58.60000 2315.474
58.64000 2341.338
58.68000 2332.305
58.72000 2309.684
58.76000 2341.956
58.80000 2309.991
58.84000 2293.209
58.88000 2312.911
58.92000 2324.347
58.96000 2299.999
59.00000 2308.963
59.04000 2338.939
59.08000 2300.013
59.12000 2331.453
59.16000 2278.490
59.20000 2288.476
59.24000 2317.820
59.28000 2292.308
59.32000 2337.419
59.36000 2317.385
59.40000 2351.390
59.44000 2310.158
59.48000 2315.902
59.52000 2316.707
59.56000 2327.151
59.60000 2335.634
59.64000 2288.937
59.68000 2339.616
59.72000 2298.119
59.76000 2335.597
59.80000 2358.671
59.84000 2342.308
59.88000 2302.047
59.92000 2290.912
59.96000 2311.235
60.00000 2308.065
60.04000 2302.514
60.08000 2299.487
60.12000 2279.688
60.16000 2289.603
60.20000 2305.032
60.24000 2327.927
60.28000 2331.808
60.32000 2300.171
60.36000 2306.684
60.40000 2313.353
60.44000 2278.657
60.48000 2294.223
60.52000 2342.352
60.56000 2305.117
60.60000 2351.614
60.64000 2333.279
60.68000 2323.526
60.72000 2304.617
60.76000 2311.654
60.80000 2317.264
60.84000 2311.462
60.88000 2284.780
60.92000 2293.990
60.96000 2272.218
61.00000 2308.892
61.04000 2304.441
61.08000 2327.093
61.12000 2302.621
61.16000 2270.518
61.20000 2314.448
61.24000 2319.700
61.28000 2287.305
61.32000 2292.692
61.36000 2323.178
61.40000 2324.211
61.44000 2319.747
61.48000 2309.463
61.52000 2337.798
61.56000 2324.424
61.60000 2332.260
61.64000 2326.786
61.68000 2346.527
61.72000 2328.311
61.76000 2341.018
61.80000 2323.721
61.84000 2304.049
61.88000 2291.375
61.92000 2305.173
61.96000 2302.581
62.00000 2292.315
62.04000 2290.535
62.08000 2291.081
62.12000 2300.813
62.16000 2315.117
62.20000 2344.287
62.24000 2319.419
62.28000 2273.559
62.32000 2320.213
62.36000 2313.426
62.40000 2365.064
62.44000 2280.013
62.48000 2295.172
62.52000 2323.010
62.56000 2325.349
62.60000 2299.620
62.64000 2276.229
62.68000 2304.892
62.72000 2256.463
62.76000 2325.885
62.80000 2313.674
62.84000 2329.128
62.88000 2282.181
62.92000 2311.130
62.96000 2274.906
63.00000 2336.250
63.04000 2312.572
63.08000 2323.577
63.12000 2324.438
63.16000 2308.237
63.20000 2314.354
63.24000 2317.223
63.28000 2328.945
63.32000 2326.408
63.36000 2320.517
63.40000 2311.203
63.44000 2301.410
63.48000 2330.225
63.52000 2324.297
63.56000 2333.181
63.60000 2334.639
63.64000 2328.682
63.68000 2354.315
63.72000 2319.785
63.76000 2316.701
63.80000 2337.859
63.84000 2345.028
63.88000 2335.818
63.92000 2346.576
63.96000 2379.787
64.00000 2371.315
64.04000 2382.135
64.08000 2380.434
64.12000 2431.553
64.16000 2399.077
64.20000 2466.687
64.24000 2472.233
64.28000 2472.443
64.32000 2556.859
64.36000 2651.115
64.40000 2602.184
64.44000 2669.042
64.48000 2716.606
64.52000 2720.316
64.56000 2743.640
64.60000 2699.417
64.64000 2673.842
64.68000 2633.753
64.72000 2597.497
64.76000 2625.867
64.80000 2620.099
64.84000 2523.875
64.88000 2490.402
64.92000 2469.537
64.96000 2421.431
65.00000 2399.276
65.04000 2396.656
65.08000 2407.526
65.12000 2371.022
65.16000 2343.280
65.20000 2347.110
65.24000 2341.531
65.28000 2339.010
65.32000 2331.504
65.36000 2353.808
65.40000 2352.036
65.44000 2346.393
65.48000 2308.625
65.52000 2301.519
65.56000 2292.813
65.60000 2320.556
65.64000 2330.133
65.68000 2340.329
65.72000 2391.517
65.76000 2354.127
65.80000 2359.108
65.84000 2354.138
65.88000 2384.277
65.92000 2348.538
65.96000 2320.546
66.00000 2354.157
66.04000 2351.452
66.08000 2344.853
66.12000 2321.132
66.16000 2311.809
66.20000 2304.442
66.24000 2302.179
66.28000 2295.650
66.32000 2275.621
66.36000 2291.680
66.40000 2333.890
66.44000 2345.741
66.48000 2330.858
66.52000 2321.764
66.56000 2293.088
66.60000 2349.613
66.64000 2333.349
66.68000 2313.672
66.72000 2328.806
66.76000 2325.145
66.80000 2305.173
66.84000 2324.893
66.88000 2283.558
66.92000 2324.291
66.96000 2315.219
67.00000 2330.277
67.04000 2337.333
67.08000 2298.915
67.12000 2333.607
67.16000 2324.205
67.20000 2299.994
67.24000 2346.427
67.28000 2319.359
67.32000 2321.636
67.36000 2344.988
67.40000 2389.075
67.44000 2342.666
67.48000 2330.301
67.52000 2269.643
67.56000 2312.266
67.60000 2303.953
67.64000 2304.260
67.68000 2310.141
67.72000 2315.043
67.76000 2324.897
67.80000 2327.441
67.84000 2275.337
67.88000 2316.853
67.92000 2347.772
67.96000 2344.945
68.00000 2351.691
68.04000 2336.917
68.08000 2311.880
68.12000 2333.151
68.16000 2345.157
68.20000 2324.756
68.24000 2367.257
68.28000 2313.769
68.32000 2342.988
68.36000 2374.333
68.40000 2338.859
68.44000 2365.994
68.48000 2369.690
68.52000 2351.854
68.56000 2379.984
68.60000 2360.439
68.64000 2380.434
68.68000 2430.454
68.72000 2442.491
68.76000 2454.164
68.80000 2431.634
68.84000 2543.915
68.88000 2851.683
68.92000 3750.754
68.96000 5317.715
69.00000 6752.935
69.04000 7054.933
69.08000 7026.292
69.12000 7119.188
69.16000 6990.408
69.20000 6054.787
69.24000 5218.342
69.28000 4711.657
69.32000 4430.039
69.36000 3957.300
69.40000 3116.512
69.44000 2642.469
69.48000 2439.052
69.52000 2411.130
69.56000 2384.572
69.60000 2419.802
69.64000 2360.411
69.68000 2354.012
69.72000 2336.185
69.76000 2347.143
69.80000 2324.767
69.84000 2330.631
69.88000 2316.956
69.92000 2339.003
69.96000 2320.499
70.00000 2317.234