File: XRD/22-09-2025 Dep 2/XY Data/BTO_Mapping_Theta2Theta_22-09-2025_001_47_-6-235_-7-818.xy
20.00000 571.103
20.04000 575.870
20.08000 573.662
20.12000 579.683
20.16000 569.315
20.20000 559.671
20.24000 571.566
20.28000 562.308
20.32000 572.293
20.36000 567.439
20.40000 578.435
20.44000 561.236
20.48000 577.532
20.52000 551.326
20.56000 563.439
20.60000 554.412
20.64000 543.406
20.68000 560.392
20.72000 552.175
20.76000 545.894
20.80000 554.186
20.84000 542.852
20.88000 566.804
20.92000 555.863
20.96000 558.828
21.00000 560.886
21.04000 565.474
21.08000 567.960
21.12000 561.237
21.16000 554.188
21.20000 560.035
21.24000 583.690
21.28000 557.565
21.32000 549.076
21.36000 567.875
21.40000 559.960
21.44000 568.363
21.48000 567.601
21.52000 559.159
21.56000 551.363
21.60000 564.971
21.64000 594.994
21.68000 580.297
21.72000 591.349
21.76000 601.044
21.80000 654.360
21.84000 684.448
21.88000 699.637
21.92000 762.045
21.96000 788.181
22.00000 839.436
22.04000 836.294
22.08000 840.939
22.12000 839.499
22.16000 810.872
22.20000 775.838
22.24000 734.520
22.28000 689.668
22.32000 659.457
22.36000 650.068
22.40000 603.854
22.44000 587.556
22.48000 587.211
22.52000 572.615
22.56000 565.127
22.60000 534.382
22.64000 556.197
22.68000 555.306
22.72000 562.593
22.76000 547.561
22.80000 537.199
22.84000 534.641
22.88000 525.292
22.92000 505.103
22.96000 533.937
23.00000 522.424
23.04000 544.440
23.08000 521.902
23.12000 514.299
23.16000 522.159
23.20000 499.541
23.24000 480.613
23.28000 517.033
23.32000 504.020
23.36000 490.113
23.40000 512.874
23.44000 510.173
23.48000 490.888
23.52000 511.853
23.56000 514.927
23.60000 502.920
23.64000 499.882
23.68000 510.748
23.72000 510.548
23.76000 502.943
23.80000 475.660
23.84000 523.177
23.88000 507.343
23.92000 498.292
23.96000 504.086
24.00000 509.194
24.04000 501.713
24.08000 518.803
24.12000 497.572
24.16000 506.254
24.20000 530.940
24.24000 495.869
24.28000 494.178
24.32000 495.877
24.36000 485.790
24.40000 488.887
24.44000 494.147
24.48000 495.452
24.52000 501.906
24.56000 494.620
24.60000 506.294
24.64000 499.484
24.68000 493.814
24.72000 489.323
24.76000 484.175
24.80000 484.300
24.84000 478.722
24.88000 495.016
24.92000 482.548
24.96000 467.556
25.00000 473.087
25.04000 486.420
25.08000 481.017
25.12000 484.856
25.16000 473.506
25.20000 470.043
25.24000 483.868
25.28000 468.531
25.32000 469.569
25.36000 491.275
25.40000 475.723
25.44000 471.238
25.48000 485.206
25.52000 481.587
25.56000 484.152
25.60000 472.622
25.64000 471.291
25.68000 456.815
25.72000 454.087
25.76000 485.515
25.80000 481.516
25.84000 462.356
25.88000 453.673
25.92000 469.833
25.96000 465.828
26.00000 461.492
26.04000 448.916
26.08000 485.573
26.12000 464.935
26.16000 442.197
26.20000 464.128
26.24000 447.462
26.28000 479.545
26.32000 450.042
26.36000 451.820
26.40000 453.597
26.44000 459.692
26.48000 458.700
26.52000 454.905
26.56000 470.278
26.60000 458.254
26.64000 459.870
26.68000 444.500
26.72000 445.318
26.76000 444.516
26.80000 455.145
26.84000 451.743
26.88000 452.936
26.92000 443.622
26.96000 440.233
27.00000 466.665
27.04000 453.347
27.08000 448.615
27.12000 436.906
27.16000 454.954
27.20000 441.515
27.24000 435.303
27.28000 442.266
27.32000 454.896
27.36000 442.345
27.40000 448.831
27.44000 445.002
27.48000 446.128
27.52000 463.543
27.56000 440.617
27.60000 428.673
27.64000 441.040
27.68000 437.312
27.72000 437.391
27.76000 448.755
27.80000 451.977
27.84000 442.168
27.88000 440.791
27.92000 424.672
27.96000 429.199
28.00000 439.713
28.04000 430.843
28.08000 436.017
28.12000 449.072
28.16000 458.765
28.20000 431.014
28.24000 445.132
28.28000 445.500
28.32000 416.048
28.36000 439.267
28.40000 434.942
28.44000 438.825
28.48000 432.205
28.52000 433.486
28.56000 441.269
28.60000 417.018
28.64000 420.473
28.68000 430.576
28.72000 431.515
28.76000 416.252
28.80000 429.973
28.84000 422.144
28.88000 400.826
28.92000 424.754
28.96000 425.051
29.00000 412.317
29.04000 434.955
29.08000 447.839
29.12000 422.921
29.16000 413.856
29.20000 439.379
29.24000 427.544
29.28000 407.506
29.32000 418.501
29.36000 389.565
29.40000 435.274
29.44000 416.103
29.48000 434.113
29.52000 420.313
29.56000 411.614
29.60000 415.870
29.64000 419.530
29.68000 411.517
29.72000 420.199
29.76000 427.334
29.80000 432.701
29.84000 424.082
29.88000 438.165
29.92000 436.443
29.96000 447.864
30.00000 455.133
30.04000 432.416
30.08000 467.948
30.12000 468.257
30.16000 439.640
30.20000 447.008
30.24000 444.865
30.28000 454.361
30.32000 435.374
30.36000 437.618
30.40000 451.655
30.44000 435.035
30.48000 433.551
30.52000 436.759
30.56000 459.361
30.60000 461.683
30.64000 436.508
30.68000 433.047
30.72000 461.230
30.76000 459.005
30.80000 458.753
30.84000 484.210
30.88000 509.400
30.92000 544.846
30.96000 564.340
31.00000 610.755
31.04000 718.809
31.08000 814.794
31.12000 1007.641
31.16000 1291.386
31.20000 1646.253
31.24000 2077.873
31.28000 2607.061
31.32000 3027.879
31.36000 3281.483
31.40000 3379.376
31.44000 3244.920
31.48000 2967.426
31.52000 2508.281
31.56000 2084.653
31.60000 1706.882
31.64000 1320.357
31.68000 1073.242
31.72000 880.321
31.76000 763.107
31.80000 686.025
31.84000 582.170
31.88000 538.374
31.92000 515.640
31.96000 474.176
32.00000 456.753
32.04000 452.912
32.08000 448.863
32.12000 429.556
32.16000 433.654
32.20000 402.963
32.24000 420.277
32.28000 410.827
32.32000 404.621
32.36000 399.421
32.40000 403.122
32.44000 399.241
32.48000 398.467
32.52000 403.709
32.56000 400.407
32.60000 389.977
32.64000 408.523
32.68000 388.248
32.72000 403.295
32.76000 397.469
32.80000 425.754
32.84000 427.624
32.88000 458.080
32.92000 480.470
32.96000 455.057
33.00000 448.372
33.04000 468.689
33.08000 413.468
33.12000 388.531
33.16000 393.064
33.20000 356.661
33.24000 363.586
33.28000 358.843
33.32000 350.431
33.36000 346.892
33.40000 342.926
33.44000 353.636
33.48000 343.893
33.52000 337.432
33.56000 360.870
33.60000 352.185
33.64000 359.086
33.68000 342.608
33.72000 343.774
33.76000 346.236
33.80000 357.807
33.84000 345.630
33.88000 339.404
33.92000 364.697
33.96000 340.173
34.00000 347.406
34.04000 331.070
34.08000 331.032
34.12000 339.071
34.16000 345.199
34.20000 338.283
34.24000 339.465
34.28000 326.411
34.32000 342.028
34.36000 338.150
34.40000 339.714
34.44000 331.816
34.48000 333.181
34.52000 324.196
34.56000 330.393
34.60000 334.509
34.64000 325.156
34.68000 339.971
34.72000 319.785
34.76000 319.526
34.80000 317.134
34.84000 331.811
34.88000 321.363
34.92000 316.064
34.96000 334.824
35.00000 322.816
35.04000 333.577
35.08000 334.343
35.12000 326.385
35.16000 348.732
35.20000 313.340
35.24000 327.437
35.28000 322.500
35.32000 314.336
35.36000 322.680
35.40000 314.409
35.44000 318.277
35.48000 313.834
35.52000 317.301
35.56000 325.159
35.60000 311.376
35.64000 323.943
35.68000 295.666
35.72000 315.520
35.76000 307.969
35.80000 303.896
35.84000 311.241
35.88000 319.815
35.92000 306.153
35.96000 300.567
36.00000 299.116
36.04000 329.616
36.08000 304.804
36.12000 310.142
36.16000 311.188
36.20000 318.516
36.24000 319.849
36.28000 310.096
36.32000 315.293
36.36000 315.653
36.40000 301.486
36.44000 302.464
36.48000 315.339
36.52000 318.887
36.56000 301.209
36.60000 305.192
36.64000 303.542
36.68000 295.922
36.72000 298.087
36.76000 303.066
36.80000 299.744
36.84000 302.137
36.88000 299.039
36.92000 298.500
36.96000 301.806
37.00000 296.784
37.04000 309.392
37.08000 313.706
37.12000 291.532
37.16000 300.285
37.20000 291.089
37.24000 315.254
37.28000 290.539
37.32000 306.346
37.36000 300.042
37.40000 292.690
37.44000 304.117
37.48000 314.161
37.52000 294.980
37.56000 304.624
37.60000 304.144
37.64000 307.037
37.68000 290.579
37.72000 305.888
37.76000 296.484
37.80000 295.859
37.84000 300.315
37.88000 295.628
37.92000 295.896
37.96000 300.695
38.00000 307.123
38.04000 303.155
38.08000 301.718
38.12000 315.177
38.16000 323.257
38.20000 317.368
38.24000 325.697
38.28000 324.081
38.32000 358.766
38.36000 362.207
38.40000 382.787
38.44000 442.620
38.48000 502.872
38.52000 571.092
38.56000 669.554
38.60000 772.394
38.64000 858.312
38.68000 907.812
38.72000 939.548
38.76000 911.406
38.80000 861.032
38.84000 745.271
38.88000 641.798
38.92000 560.520
38.96000 477.291
39.00000 424.867
39.04000 381.269
39.08000 362.074
39.12000 349.942
39.16000 329.350
39.20000 317.816
39.24000 291.135
39.28000 299.181
39.32000 297.920
39.36000 279.408
39.40000 285.166
39.44000 278.305
39.48000 286.250
39.52000 268.978
39.56000 291.294
39.60000 273.326
39.64000 279.020
39.68000 275.280
39.72000 271.505
39.76000 274.248
39.80000 255.547
39.84000 276.229
39.88000 289.111
39.92000 282.460
39.96000 283.965
40.00000 269.220
40.04000 258.147
40.08000 262.137
40.12000 252.069
40.16000 281.597
40.20000 262.557
40.24000 274.257
40.28000 269.509
40.32000 259.569
40.36000 259.659
40.40000 263.015
40.44000 257.732
40.48000 260.841
40.52000 263.935
40.56000 255.666
40.60000 253.053
40.64000 266.313
40.68000 284.122
40.72000 258.475
40.76000 264.328
40.80000 256.240
40.84000 269.406
40.88000 245.137
40.92000 257.748
40.96000 247.672
41.00000 261.138
41.04000 263.682
41.08000 266.600
41.12000 251.842
41.16000 266.651
41.20000 259.771
41.24000 248.507
41.28000 253.312
41.32000 255.006
41.36000 241.686
41.40000 236.232
41.44000 242.851
41.48000 249.093
41.52000 254.595
41.56000 248.697
41.60000 254.821
41.64000 245.633
41.68000 232.835
41.72000 249.471
41.76000 238.071
41.80000 246.037
41.84000 242.279
41.88000 247.885
41.92000 237.032
41.96000 229.096
42.00000 244.813
42.04000 246.872
42.08000 237.810
42.12000 241.590
42.16000 236.185
42.20000 236.345
42.24000 248.629
42.28000 242.370
42.32000 232.143
42.36000 248.362
42.40000 232.690
42.44000 234.405
42.48000 256.133
42.52000 250.115
42.56000 229.904
42.60000 246.982
42.64000 230.239
42.68000 236.600
42.72000 238.338
42.76000 232.734
42.80000 227.949
42.84000 231.980
42.88000 249.389
42.92000 237.082
42.96000 236.363
43.00000 231.263
43.04000 230.437
43.08000 246.516
43.12000 235.433
43.16000 250.121
43.20000 233.927
43.24000 226.615
43.28000 227.476
43.32000 229.982
43.36000 231.948
43.40000 230.451
43.44000 219.494
43.48000 223.923
43.52000 225.481
43.56000 235.905
43.60000 235.052
43.64000 228.737
43.68000 220.980
43.72000 237.699
43.76000 223.190
43.80000 223.881
43.84000 230.193
43.88000 233.940
43.92000 237.906
43.96000 234.104
44.00000 227.443
44.04000 225.853
44.08000 222.259
44.12000 219.484
44.16000 236.001
44.20000 220.571
44.24000 239.594
44.28000 238.719
44.32000 241.837
44.36000 245.440
44.40000 222.968
44.44000 248.852
44.48000 248.391
44.52000 252.668
44.56000 235.340
44.60000 253.644
44.64000 274.097
44.68000 279.812
44.72000 292.200
44.76000 308.213
44.80000 319.646
44.84000 352.362
44.88000 391.899
44.92000 415.361
44.96000 443.912
45.00000 466.272
45.04000 473.263
45.08000 488.467
45.12000 474.307
45.16000 454.333
45.20000 452.852
45.24000 407.061
45.28000 382.782
45.32000 366.856
45.36000 345.942
45.40000 329.893
45.44000 315.258
45.48000 292.254
45.52000 291.328
45.56000 280.536
45.60000 269.951
45.64000 265.036
45.68000 254.256
45.72000 231.148
45.76000 243.952
45.80000 247.282
45.84000 213.869
45.88000 229.845
45.92000 238.350
45.96000 224.247
46.00000 235.889
46.04000 212.724
46.08000 216.917
46.12000 205.332
46.16000 219.932
46.20000 221.515
46.24000 216.587
46.28000 214.860
46.32000 210.271
46.36000 206.859
46.40000 198.355
46.44000 206.256
46.48000 205.095
46.52000 219.356
46.56000 205.910
46.60000 200.775
46.64000 207.946
46.68000 198.267
46.72000 201.565
46.76000 200.089
46.80000 204.323
46.84000 197.889
46.88000 199.615
46.92000 198.534
46.96000 198.873
47.00000 199.519
47.04000 188.599
47.08000 197.452
47.12000 190.374
47.16000 198.188
47.20000 195.850
47.24000 197.948
47.28000 188.694
47.32000 189.388
47.36000 194.817
47.40000 208.328
47.44000 199.159
47.48000 204.785
47.52000 196.176
47.56000 188.240
47.60000 192.142
47.64000 184.366
47.68000 181.825
47.72000 180.824
47.76000 191.050
47.80000 188.646
47.84000 185.312
47.88000 182.947
47.92000 185.964
47.96000 184.522
48.00000 200.652
48.04000 180.088
48.08000 184.677
48.12000 192.357
48.16000 195.735
48.20000 193.438
48.24000 191.652
48.28000 180.930
48.32000 191.193
48.36000 187.630
48.40000 193.940
48.44000 177.720
48.48000 182.802
48.52000 177.636
48.56000 191.511
48.60000 190.433
48.64000 187.104
48.68000 187.615
48.72000 180.270
48.76000 176.158
48.80000 188.778
48.84000 188.797
48.88000 182.199
48.92000 177.797
48.96000 172.716
49.00000 187.176
49.04000 191.872
49.08000 181.372
49.12000 181.594
49.16000 178.964
49.20000 193.445
49.24000 173.070
49.28000 178.748
49.32000 182.421
49.36000 169.726
49.40000 179.721
49.44000 179.028
49.48000 178.119
49.52000 175.225
49.56000 179.159
49.60000 176.803
49.64000 192.676
49.68000 177.358
49.72000 178.364
49.76000 186.037
49.80000 164.681
49.84000 171.995
49.88000 188.827
49.92000 186.280
49.96000 174.262
50.00000 178.734
50.04000 184.530
50.08000 170.060
50.12000 179.127
50.16000 181.721
50.20000 180.698
50.24000 178.738
50.28000 188.016
50.32000 187.637
50.36000 187.562
50.40000 203.629
50.44000 208.857
50.48000 211.600
50.52000 231.046
50.56000 240.733
50.60000 250.222
50.64000 258.910
50.68000 255.999
50.72000 270.781
50.76000 271.492
50.80000 264.208
50.84000 259.928
50.88000 253.221
50.92000 228.424
50.96000 220.098
51.00000 213.683
51.04000 201.094
51.08000 193.409
51.12000 201.757
51.16000 190.096
51.20000 191.971
51.24000 177.549
51.28000 182.909
51.32000 183.206
51.36000 174.093
51.40000 180.343
51.44000 178.633
51.48000 179.262
51.52000 187.153
51.56000 175.080
51.60000 178.560
51.64000 167.715
51.68000 172.529
51.72000 166.631
51.76000 176.153
51.80000 171.297
51.84000 173.396
51.88000 162.604
51.92000 165.980
51.96000 176.591
52.00000 172.260
52.04000 166.161
52.08000 164.714
52.12000 158.065
52.16000 164.926
52.20000 166.613
52.24000 159.331
52.28000 168.416
52.32000 167.333
52.36000 164.317
52.40000 169.765
52.44000 149.831
52.48000 170.366
52.52000 166.526
52.56000 164.668
52.60000 163.027
52.64000 157.836
52.68000 173.472
52.72000 168.339
52.76000 163.187
52.80000 177.337
52.84000 164.806
52.88000 156.208
52.92000 154.999
52.96000 162.599
53.00000 156.553
53.04000 172.239
53.08000 162.072
53.12000 164.198
53.16000 167.346
53.20000 158.821
53.24000 163.915
53.28000 158.976
53.32000 167.663
53.36000 163.449
53.40000 166.538
53.44000 169.114
53.48000 163.572
53.52000 162.639
53.56000 163.887
53.60000 160.448
53.64000 161.280
53.68000 158.785
53.72000 157.288
53.76000 156.059
53.80000 162.625
53.84000 153.713
53.88000 158.828
53.92000 156.998
53.96000 169.083
54.00000 160.429
54.04000 155.902
54.08000 148.137
54.12000 153.335
54.16000 145.771
54.20000 155.613
54.24000 163.626
54.28000 155.599
54.32000 165.105
54.36000 155.793
54.40000 158.023
54.44000 153.283
54.48000 166.325
54.52000 154.143
54.56000 150.572
54.60000 147.515
54.64000 156.532
54.68000 162.048
54.72000 158.150
54.76000 159.120
54.80000 154.876
54.84000 160.738
54.88000 158.350
54.92000 159.457
54.96000 164.210
55.00000 170.263
55.04000 166.432
55.08000 176.112
55.12000 168.506
55.16000 166.315
55.20000 170.270
55.24000 162.358
55.28000 168.957
55.32000 174.707
55.36000 180.918
55.40000 184.470
55.44000 194.171
55.48000 203.959
55.52000 222.207
55.56000 240.205
55.60000 252.989
55.64000 271.172
55.68000 296.534
55.72000 379.289
55.76000 398.218
55.80000 458.246
55.84000 509.546
55.88000 554.571
55.92000 580.201
55.96000 577.862
56.00000 554.693
56.04000 561.260
56.08000 499.852
56.12000 473.331
56.16000 423.419
56.20000 378.267
56.24000 333.597
56.28000 302.650
56.32000 268.046
56.36000 256.597
56.40000 242.382
56.44000 219.077
56.48000 208.517
56.52000 191.079
56.56000 185.833
56.60000 181.407
56.64000 171.222
56.68000 174.202
56.72000 170.016
56.76000 165.811
56.80000 165.008
56.84000 172.745
56.88000 174.864
56.92000 160.038
56.96000 150.388
57.00000 163.558
57.04000 156.347
57.08000 149.631
57.12000 152.335
57.16000 153.517
57.20000 159.397
57.24000 145.219
57.28000 154.142
57.32000 150.100
57.36000 160.585
57.40000 155.280
57.44000 142.567
57.48000 158.446
57.52000 145.573
57.56000 157.086
57.60000 141.792
57.64000 139.122
57.68000 145.747
57.72000 152.078
57.76000 145.495
57.80000 147.224
57.84000 144.392
57.88000 146.559
57.92000 146.129
57.96000 152.255
58.00000 148.417
58.04000 146.973
58.08000 148.928
58.12000 144.315
58.16000 143.458
58.20000 136.267
58.24000 130.624
58.28000 144.817
58.32000 130.506
58.36000 143.918
58.40000 142.513
58.44000 140.894
58.48000 142.939
58.52000 144.694
58.56000 135.863
58.60000 127.779
58.64000 132.803
58.68000 141.782
58.72000 134.195
58.76000 127.652
58.80000 138.551
58.84000 123.451
58.88000 140.962
58.92000 141.023
58.96000 135.437
59.00000 149.477
59.04000 137.662
59.08000 130.610
59.12000 141.490
59.16000 132.836
59.20000 136.535
59.24000 135.820
59.28000 137.281
59.32000 130.838
59.36000 144.139
59.40000 134.476
59.44000 133.380
59.48000 137.432
59.52000 136.320
59.56000 137.229
59.60000 133.260
59.64000 140.610
59.68000 142.167
59.72000 146.120
59.76000 140.128
59.80000 128.404
59.84000 126.691
59.88000 140.028
59.92000 138.270
59.96000 138.389
60.00000 130.006
60.04000 136.145
60.08000 122.393
60.12000 136.582
60.16000 130.641
60.20000 133.261
60.24000 127.012
60.28000 136.437
60.32000 132.168
60.36000 132.434
60.40000 121.732
60.44000 128.666
60.48000 133.117
60.52000 133.841
60.56000 130.008
60.60000 128.577
60.64000 123.230
60.68000 131.269
60.72000 130.683
60.76000 126.056
60.80000 135.035
60.84000 133.953
60.88000 126.430
60.92000 133.961
60.96000 119.314
61.00000 131.714
61.04000 120.589
61.08000 137.230
61.12000 127.550
61.16000 139.175
61.20000 140.666
61.24000 142.797
61.28000 136.045
61.32000 143.780
61.36000 142.417
61.40000 144.291
61.44000 143.731
61.48000 144.379
61.52000 187.357
61.56000 236.531
61.60000 281.799
61.64000 328.911
61.68000 363.323
61.72000 360.225
61.76000 343.066
61.80000 269.587
61.84000 190.644
61.88000 175.490
61.92000 157.084
61.96000 148.108
62.00000 146.297
62.04000 149.805
62.08000 139.656
62.12000 149.869
62.16000 145.716
62.20000 145.429
62.24000 149.406
62.28000 139.419
62.32000 141.089
62.36000 142.645
62.40000 146.263
62.44000 144.090
62.48000 149.449
62.52000 149.927
62.56000 139.343
62.60000 129.830
62.64000 145.025
62.68000 145.324
62.72000 137.285
62.76000 149.243
62.80000 152.596
62.84000 145.386
62.88000 149.774
62.92000 141.433
62.96000 144.176
63.00000 150.118
63.04000 149.432
63.08000 141.704
63.12000 155.139
63.16000 145.366
63.20000 160.040
63.24000 160.624
63.28000 152.593
63.32000 149.214
63.36000 153.883
63.40000 151.459
63.44000 147.589
63.48000 155.267
63.52000 150.454
63.56000 160.403
63.60000 159.077
63.64000 150.144
63.68000 148.856
63.72000 156.680
63.76000 168.201
63.80000 155.010
63.84000 162.414
63.88000 165.699
63.92000 151.567
63.96000 158.593
64.00000 164.224
64.04000 165.853
64.08000 158.420
64.12000 159.575
64.16000 157.065
64.20000 164.044
64.24000 155.771
64.28000 170.902
64.32000 168.209
64.36000 156.334
64.40000 191.660
64.44000 170.235
64.48000 168.275
64.52000 167.415
64.56000 171.018
64.60000 169.810
64.64000 178.348
64.68000 174.068
64.72000 167.086
64.76000 180.868
64.80000 195.468
64.84000 179.995
64.88000 195.327
64.92000 201.649
64.96000 197.408
65.00000 205.124
65.04000 197.178
65.08000 219.574
65.12000 208.848
65.16000 220.090
65.20000 239.333
65.24000 259.975
65.28000 265.724
65.32000 292.586
65.36000 305.980
65.40000 323.952
65.44000 357.124
65.48000 391.346
65.52000 399.685
65.56000 441.811
65.60000 464.043
65.64000 515.311
65.68000 609.246
65.72000 782.595
65.76000 1070.415
65.80000 1359.944
65.84000 1483.910
65.88000 1530.968
65.92000 1456.882
65.96000 1273.982
66.00000 896.053
66.04000 620.476
66.08000 432.652
66.12000 388.935
66.16000 347.693
66.20000 361.575
66.24000 363.299
66.28000 403.103
66.32000 482.199
66.36000 512.569
66.40000 547.406
66.44000 564.501
66.48000 555.076
66.52000 511.846
66.56000 426.983
66.60000 378.828
66.64000 361.783
66.68000 351.728
66.72000 347.306
66.76000 346.996
66.80000 375.045
66.84000 370.007
66.88000 351.459
66.92000 367.389
66.96000 381.519
67.00000 383.301
67.04000 390.666
67.08000 394.135
67.12000 390.168
67.16000 409.458
67.20000 416.990
67.24000 441.471
67.28000 440.685
67.32000 435.884
67.36000 452.791
67.40000 461.446
67.44000 477.019
67.48000 479.599
67.52000 484.035
67.56000 490.501
67.60000 493.409
67.64000 523.838
67.68000 528.068
67.72000 547.067
67.76000 527.228
67.80000 540.644
67.84000 560.728
67.88000 580.034
67.92000 574.583
67.96000 587.428
68.00000 603.607
68.04000 647.530
68.08000 643.775
68.12000 656.297
68.16000 666.420
68.20000 684.882
68.24000 726.675
68.28000 714.160
68.32000 740.743
68.36000 789.136
68.40000 823.442
68.44000 858.182
68.48000 901.168
68.52000 990.869
68.56000 1039.737
68.60000 1202.316
68.64000 1450.033
68.68000 1754.297
68.72000 2057.990
68.76000 2403.424
68.80000 2842.541
68.84000 3566.285
68.88000 4883.810
68.92000 8835.271
68.96000 20347.723
69.00000 43625.254
69.04000 69149.516
69.08000 82866.391
69.12000 87092.383
69.16000 90140.117
69.20000 89717.773
69.24000 75598.500
69.28000 58443.852
69.32000 48030.578
69.36000 42577.250
69.40000 35152.559
69.44000 21726.217
69.48000 10428.501
69.52000 4767.494
69.56000 2763.324
69.60000 1982.810
69.64000 1621.088
69.68000 1393.855
69.72000 1274.159
69.76000 1141.327
69.80000 1048.741
69.84000 993.058
69.88000 915.440
69.92000 862.066
69.96000 831.002
70.00000 820.095