File: XRD/22-09-2025 Dep 2/XY Data/BTO_Mapping_Theta2Theta_22-09-2025_001_19_6-676_29-248.xy
20.00000 553.440
20.04000 576.834
20.08000 570.146
20.12000 573.014
20.16000 556.663
20.20000 553.990
20.24000 552.159
20.28000 542.004
20.32000 584.876
20.36000 550.344
20.40000 552.793
20.44000 566.982
20.48000 559.947
20.52000 545.411
20.56000 531.092
20.60000 543.797
20.64000 544.878
20.68000 570.522
20.72000 572.930
20.76000 546.885
20.80000 547.716
20.84000 553.551
20.88000 585.440
20.92000 567.499
20.96000 565.106
21.00000 545.189
21.04000 543.997
21.08000 532.496
21.12000 538.866
21.16000 548.554
21.20000 559.669
21.24000 563.278
21.28000 571.146
21.32000 568.731
21.36000 546.122
21.40000 564.896
21.44000 557.063
21.48000 572.040
21.52000 576.147
21.56000 573.529
21.60000 559.907
21.64000 567.572
21.68000 584.656
21.72000 588.784
21.76000 585.064
21.80000 616.129
21.84000 653.434
21.88000 652.558
21.92000 682.063
21.96000 698.357
22.00000 748.830
22.04000 774.057
22.08000 771.250
22.12000 768.680
22.16000 756.446
22.20000 712.539
22.24000 697.196
22.28000 685.665
22.32000 638.672
22.36000 634.766
22.40000 626.654
22.44000 595.371
22.48000 592.195
22.52000 563.314
22.56000 573.878
22.60000 579.917
22.64000 533.545
22.68000 532.482
22.72000 540.757
22.76000 548.340
22.80000 525.884
22.84000 522.301
22.88000 522.564
22.92000 515.327
22.96000 514.004
23.00000 525.217
23.04000 514.076
23.08000 513.933
23.12000 506.409
23.16000 538.886
23.20000 521.644
23.24000 521.743
23.28000 519.577
23.32000 514.979
23.36000 519.322
23.40000 510.633
23.44000 514.622
23.48000 491.174
23.52000 523.602
23.56000 494.287
23.60000 513.737
23.64000 511.109
23.68000 516.061
23.72000 503.347
23.76000 525.608
23.80000 508.542
23.84000 495.698
23.88000 521.559
23.92000 503.073
23.96000 519.683
24.00000 489.663
24.04000 494.399
24.08000 507.150
24.12000 500.696
24.16000 511.587
24.20000 517.485
24.24000 507.866
24.28000 510.961
24.32000 477.691
24.36000 478.971
24.40000 478.046
24.44000 504.666
24.48000 524.544
24.52000 482.066
24.56000 503.298
24.60000 487.939
24.64000 491.261
24.68000 491.139
24.72000 490.508
24.76000 484.456
24.80000 479.900
24.84000 483.668
24.88000 479.600
24.92000 492.529
24.96000 490.858
25.00000 470.468
25.04000 475.610
25.08000 463.367
25.12000 481.708
25.16000 474.663
25.20000 476.678
25.24000 482.137
25.28000 472.130
25.32000 485.698
25.36000 482.437
25.40000 488.839
25.44000 467.694
25.48000 479.178
25.52000 466.958
25.56000 473.047
25.60000 467.661
25.64000 475.079
25.68000 468.753
25.72000 464.883
25.76000 464.918
25.80000 467.514
25.84000 493.376
25.88000 456.213
25.92000 451.305
25.96000 447.373
26.00000 477.060
26.04000 479.757
26.08000 459.204
26.12000 455.372
26.16000 464.244
26.20000 475.853
26.24000 454.696
26.28000 474.555
26.32000 442.184
26.36000 457.456
26.40000 445.333
26.44000 450.218
26.48000 450.962
26.52000 479.401
26.56000 454.339
26.60000 452.189
26.64000 477.351
26.68000 447.360
26.72000 448.163
26.76000 433.593
26.80000 455.592
26.84000 435.331
26.88000 455.577
26.92000 444.921
26.96000 425.754
27.00000 436.291
27.04000 448.595
27.08000 468.789
27.12000 457.312
27.16000 455.341
27.20000 452.299
27.24000 433.551
27.28000 432.455
27.32000 450.997
27.36000 438.942
27.40000 438.366
27.44000 428.721
27.48000 460.538
27.52000 434.399
27.56000 450.698
27.60000 441.521
27.64000 427.026
27.68000 430.664
27.72000 418.995
27.76000 453.990
27.80000 444.753
27.84000 428.494
27.88000 447.630
27.92000 440.908
27.96000 430.401
28.00000 431.438
28.04000 426.592
28.08000 458.420
28.12000 434.135
28.16000 439.194
28.20000 431.268
28.24000 422.072
28.28000 427.737
28.32000 424.178
28.36000 413.606
28.40000 439.341
28.44000 437.109
28.48000 425.307
28.52000 405.181
28.56000 429.342
28.60000 425.221
28.64000 411.266
28.68000 411.586
28.72000 424.413
28.76000 416.111
28.80000 404.642
28.84000 423.685
28.88000 408.527
28.92000 401.568
28.96000 410.639
29.00000 430.983
29.04000 414.204
29.08000 416.425
29.12000 442.357
29.16000 415.976
29.20000 421.158
29.24000 410.888
29.28000 431.687
29.32000 408.628
29.36000 421.303
29.40000 400.681
29.44000 404.016
29.48000 408.473
29.52000 402.839
29.56000 396.755
29.60000 416.443
29.64000 420.306
29.68000 417.732
29.72000 410.454
29.76000 418.893
29.80000 431.286
29.84000 416.522
29.88000 425.416
29.92000 423.585
29.96000 452.170
30.00000 467.804
30.04000 452.070
30.08000 465.805
30.12000 471.340
30.16000 448.558
30.20000 437.654
30.24000 435.948
30.28000 434.628
30.32000 436.597
30.36000 452.713
30.40000 436.801
30.44000 423.074
30.48000 436.169
30.52000 440.115
30.56000 439.934
30.60000 434.734
30.64000 458.578
30.68000 447.808
30.72000 463.384
30.76000 482.510
30.80000 482.368
30.84000 484.906
30.88000 491.704
30.92000 517.797
30.96000 546.735
31.00000 594.097
31.04000 656.156
31.08000 749.771
31.12000 904.321
31.16000 1142.311
31.20000 1482.182
31.24000 1919.099
31.28000 2370.947
31.32000 2798.304
31.36000 3206.213
31.40000 3338.399
31.44000 3271.043
31.48000 3035.453
31.52000 2589.337
31.56000 2100.680
31.60000 1665.966
31.64000 1301.475
31.68000 1081.365
31.72000 851.170
31.76000 749.095
31.80000 675.074
31.84000 601.145
31.88000 529.926
31.92000 505.069
31.96000 481.580
32.00000 458.591
32.04000 441.477
32.08000 423.047
32.12000 427.122
32.16000 431.834
32.20000 407.451
32.24000 420.282
32.28000 396.080
32.32000 414.892
32.36000 385.812
32.40000 390.902
32.44000 398.718
32.48000 382.071
32.52000 389.768
32.56000 408.445
32.60000 400.601
32.64000 357.141
32.68000 382.418
32.72000 391.559
32.76000 396.713
32.80000 387.397
32.84000 397.786
32.88000 398.702
32.92000 386.923
32.96000 407.680
33.00000 390.744
33.04000 383.512
33.08000 374.498
33.12000 372.237
33.16000 360.225
33.20000 360.661
33.24000 347.193
33.28000 353.678
33.32000 347.642
33.36000 356.743
33.40000 343.844
33.44000 346.423
33.48000 347.535
33.52000 359.907
33.56000 328.118
33.60000 352.721
33.64000 334.455
33.68000 355.002
33.72000 348.498
33.76000 345.390
33.80000 331.086
33.84000 339.475
33.88000 352.597
33.92000 332.727
33.96000 335.626
34.00000 338.210
34.04000 346.336
34.08000 326.972
34.12000 351.892
34.16000 343.737
34.20000 346.226
34.24000 340.152
34.28000 332.002
34.32000 339.517
34.36000 335.011
34.40000 340.430
34.44000 332.386
34.48000 333.370
34.52000 319.152
34.56000 328.605
34.60000 337.520
34.64000 332.331
34.68000 325.902
34.72000 337.899
34.76000 334.672
34.80000 325.784
34.84000 315.953
34.88000 331.474
34.92000 316.525
34.96000 310.494
35.00000 316.174
35.04000 308.029
35.08000 343.545
35.12000 335.116
35.16000 318.265
35.20000 322.269
35.24000 325.254
35.28000 317.738
35.32000 328.013
35.36000 315.721
35.40000 312.501
35.44000 305.710
35.48000 312.649
35.52000 317.583
35.56000 319.934
35.60000 314.117
35.64000 296.799
35.68000 325.505
35.72000 309.329
35.76000 306.533
35.80000 313.751
35.84000 302.811
35.88000 304.049
35.92000 312.948
35.96000 313.799
36.00000 301.973
36.04000 302.577
36.08000 308.363
36.12000 304.350
36.16000 308.560
36.20000 305.406
36.24000 307.230
36.28000 305.750
36.32000 289.819
36.36000 298.382
36.40000 285.779
36.44000 305.431
36.48000 318.806
36.52000 299.604
36.56000 315.158
36.60000 277.343
36.64000 299.020
36.68000 301.367
36.72000 297.163
36.76000 305.269
36.80000 296.669
36.84000 305.767
36.88000 299.139
36.92000 295.505
36.96000 307.175
37.00000 312.601
37.04000 295.645
37.08000 318.549
37.12000 299.082
37.16000 295.399
37.20000 310.849
37.24000 282.543
37.28000 282.017
37.32000 293.540
37.36000 286.102
37.40000 294.903
37.44000 271.544
37.48000 293.744
37.52000 284.495
37.56000 292.756
37.60000 295.519
37.64000 286.682
37.68000 289.480
37.72000 297.497
37.76000 306.218
37.80000 295.000
37.84000 299.517
37.88000 300.818
37.92000 290.129
37.96000 295.540
38.00000 293.484
38.04000 307.815
38.08000 290.819
38.12000 294.852
38.16000 316.221
38.20000 307.739
38.24000 313.439
38.28000 338.986
38.32000 335.534
38.36000 343.187
38.40000 366.853
38.44000 391.660
38.48000 440.446
38.52000 507.577
38.56000 601.496
38.60000 719.856
38.64000 824.359
38.68000 912.927
38.72000 981.588
38.76000 984.949
38.80000 956.809
38.84000 862.766
38.88000 735.196
38.92000 625.735
38.96000 517.814
39.00000 432.972
39.04000 387.870
39.08000 350.344
39.12000 346.358
39.16000 319.063
39.20000 306.566
39.24000 301.233
39.28000 303.945
39.32000 280.257
39.36000 294.287
39.40000 306.888
39.44000 281.397
39.48000 273.101
39.52000 278.591
39.56000 278.394
39.60000 280.177
39.64000 259.430
39.68000 268.237
39.72000 265.805
39.76000 265.339
39.80000 277.686
39.84000 269.456
39.88000 266.415
39.92000 256.086
39.96000 269.056
40.00000 262.830
40.04000 272.621
40.08000 261.755
40.12000 260.649
40.16000 257.601
40.20000 251.968
40.24000 271.849
40.28000 256.739
40.32000 261.341
40.36000 250.619
40.40000 260.699
40.44000 250.835
40.48000 245.515
40.52000 255.484
40.56000 257.584
40.60000 250.666
40.64000 267.763
40.68000 257.611
40.72000 253.823
40.76000 270.223
40.80000 236.843
40.84000 261.323
40.88000 249.665
40.92000 255.900
40.96000 245.049
41.00000 246.843
41.04000 238.886
41.08000 240.513
41.12000 240.388
41.16000 239.785
41.20000 247.988
41.24000 245.307
41.28000 233.416
41.32000 259.155
41.36000 251.325
41.40000 267.781
41.44000 255.708
41.48000 243.687
41.52000 231.685
41.56000 246.044
41.60000 239.832
41.64000 251.528
41.68000 249.752
41.72000 251.170
41.76000 236.729
41.80000 231.401
41.84000 258.883
41.88000 248.058
41.92000 252.213
41.96000 247.423
42.00000 248.408
42.04000 245.463
42.08000 229.169
42.12000 250.196
42.16000 244.342
42.20000 245.369
42.24000 240.921
42.28000 222.365
42.32000 241.745
42.36000 243.787
42.40000 236.940
42.44000 250.129
42.48000 226.257
42.52000 237.023
42.56000 222.963
42.60000 239.155
42.64000 239.764
42.68000 242.690
42.72000 233.895
42.76000 220.241
42.80000 233.729
42.84000 234.734
42.88000 225.804
42.92000 242.692
42.96000 234.250
43.00000 220.715
43.04000 221.176
43.08000 222.337
43.12000 229.248
43.16000 228.696
43.20000 228.096
43.24000 237.619
43.28000 231.108
43.32000 237.738
43.36000 215.502
43.40000 226.553
43.44000 222.602
43.48000 239.310
43.52000 223.360
43.56000 229.230
43.60000 210.737
43.64000 222.609
43.68000 215.519
43.72000 247.610
43.76000 225.409
43.80000 211.746
43.84000 216.017
43.88000 224.972
43.92000 231.153
43.96000 217.728
44.00000 227.706
44.04000 216.262
44.08000 223.614
44.12000 233.131
44.16000 233.827
44.20000 216.044
44.24000 226.457
44.28000 236.552
44.32000 224.566
44.36000 232.948
44.40000 217.031
44.44000 235.585
44.48000 229.449
44.52000 231.616
44.56000 237.081
44.60000 233.276
44.64000 241.061
44.68000 240.030
44.72000 259.149
44.76000 262.586
44.80000 264.937
44.84000 305.844
44.88000 301.734
44.92000 332.372
44.96000 339.367
45.00000 373.746
45.04000 392.155
45.08000 407.002
45.12000 391.149
45.16000 399.381
45.20000 389.454
45.24000 376.985
45.28000 372.182
45.32000 357.856
45.36000 349.164
45.40000 307.227
45.44000 297.332
45.48000 302.680
45.52000 285.699
45.56000 277.276
45.60000 262.438
45.64000 258.140
45.68000 254.206
45.72000 243.802
45.76000 242.167
45.80000 242.567
45.84000 235.810
45.88000 241.312
45.92000 242.910
45.96000 238.292
46.00000 225.070
46.04000 234.598
46.08000 213.998
46.12000 232.638
46.16000 208.943
46.20000 212.521
46.24000 212.787
46.28000 207.859
46.32000 209.401
46.36000 210.033
46.40000 212.772
46.44000 195.421
46.48000 204.909
46.52000 209.611
46.56000 213.237
46.60000 192.400
46.64000 203.996
46.68000 199.171
46.72000 198.837
46.76000 197.510
46.80000 208.951
46.84000 205.476
46.88000 210.487
46.92000 193.606
46.96000 190.804
47.00000 193.684
47.04000 201.287
47.08000 200.039
47.12000 195.561
47.16000 210.310
47.20000 198.020
47.24000 196.588
47.28000 186.202
47.32000 183.441
47.36000 178.044
47.40000 195.715
47.44000 198.552
47.48000 196.925
47.52000 196.190
47.56000 177.028
47.60000 186.587
47.64000 191.146
47.68000 182.487
47.72000 184.025
47.76000 176.189
47.80000 186.571
47.84000 189.770
47.88000 176.957
47.92000 183.439
47.96000 188.884
48.00000 174.374
48.04000 183.549
48.08000 174.907
48.12000 189.481
48.16000 182.001
48.20000 188.007
48.24000 182.909
48.28000 192.794
48.32000 184.411
48.36000 177.806
48.40000 189.491
48.44000 187.212
48.48000 181.790
48.52000 171.564
48.56000 189.715
48.60000 191.665
48.64000 176.768
48.68000 180.595
48.72000 161.489
48.76000 187.816
48.80000 180.065
48.84000 185.010
48.88000 173.357
48.92000 172.520
48.96000 171.315
49.00000 179.055
49.04000 177.376
49.08000 181.814
49.12000 176.978
49.16000 179.074
49.20000 187.763
49.24000 170.940
49.28000 176.849
49.32000 178.198
49.36000 176.351
49.40000 175.909
49.44000 196.739
49.48000 190.139
49.52000 175.440
49.56000 173.993
49.60000 173.521
49.64000 186.899
49.68000 168.992
49.72000 178.588
49.76000 180.391
49.80000 165.695
49.84000 164.274
49.88000 172.280
49.92000 181.244
49.96000 174.818
50.00000 178.852
50.04000 174.398
50.08000 167.369
50.12000 170.392
50.16000 182.960
50.20000 186.005
50.24000 182.203
50.28000 188.609
50.32000 198.123
50.36000 194.624
50.40000 187.860
50.44000 200.617
50.48000 198.087
50.52000 217.727
50.56000 208.546
50.60000 235.232
50.64000 241.274
50.68000 259.468
50.72000 262.129
50.76000 272.134
50.80000 273.594
50.84000 252.634
50.88000 246.057
50.92000 235.144
50.96000 229.506
51.00000 214.753
51.04000 215.314
51.08000 202.014
51.12000 192.007
51.16000 191.357
51.20000 197.400
51.24000 163.306
51.28000 176.896
51.32000 180.640
51.36000 170.761
51.40000 177.383
51.44000 167.023
51.48000 179.844
51.52000 167.786
51.56000 171.559
51.60000 173.851
51.64000 181.106
51.68000 168.295
51.72000 163.133
51.76000 164.608
51.80000 164.224
51.84000 163.761
51.88000 166.457
51.92000 172.533
51.96000 169.299
52.00000 179.200
52.04000 178.108
52.08000 158.409
52.12000 153.798
52.16000 174.615
52.20000 162.606
52.24000 160.751
52.28000 163.193
52.32000 164.598
52.36000 159.288
52.40000 157.300
52.44000 152.271
52.48000 147.975
52.52000 169.153
52.56000 173.489
52.60000 169.520
52.64000 169.860
52.68000 166.812
52.72000 158.680
52.76000 171.077
52.80000 159.999
52.84000 166.297
52.88000 159.114
52.92000 146.388
52.96000 153.577
53.00000 161.146
53.04000 156.766
53.08000 159.956
53.12000 153.015
53.16000 159.601
53.20000 154.895
53.24000 169.552
53.28000 165.462
53.32000 165.523
53.36000 163.649
53.40000 156.368
53.44000 157.920
53.48000 155.639
53.52000 166.775
53.56000 168.627
53.60000 151.108
53.64000 153.549
53.68000 151.242
53.72000 163.870
53.76000 160.586
53.80000 162.718
53.84000 156.370
53.88000 158.009
53.92000 172.311
53.96000 161.356
54.00000 164.683
54.04000 157.613
54.08000 156.515
54.12000 165.575
54.16000 147.407
54.20000 153.289
54.24000 155.782
54.28000 155.190
54.32000 148.176
54.36000 163.136
54.40000 153.133
54.44000 160.382
54.48000 166.710
54.52000 156.451
54.56000 158.836
54.60000 160.963
54.64000 146.400
54.68000 157.351
54.72000 146.739
54.76000 153.767
54.80000 155.258
54.84000 165.228
54.88000 160.871
54.92000 158.804
54.96000 155.024
55.00000 155.168
55.04000 165.960
55.08000 162.449
55.12000 154.053
55.16000 164.050
55.20000 147.142
55.24000 167.050
55.28000 166.955
55.32000 176.112
55.36000 171.456
55.40000 172.896
55.44000 191.958
55.48000 191.290
55.52000 197.230
55.56000 204.606
55.60000 218.415
55.64000 234.539
55.68000 235.946
55.72000 293.508
55.76000 332.162
55.80000 382.206
55.84000 417.201
55.88000 461.291
55.92000 502.832
55.96000 536.294
56.00000 536.159
56.04000 527.240
56.08000 508.643
56.12000 472.740
56.16000 424.831
56.20000 384.261
56.24000 333.460
56.28000 311.033
56.32000 273.346
56.36000 253.810
56.40000 230.238
56.44000 202.100
56.48000 210.825
56.52000 196.520
56.56000 204.216
56.60000 185.937
56.64000 188.118
56.68000 192.854
56.72000 171.090
56.76000 170.339
56.80000 153.694
56.84000 159.034
56.88000 172.429
56.92000 162.365
56.96000 155.792
57.00000 156.489
57.04000 153.499
57.08000 157.338
57.12000 150.790
57.16000 154.126
57.20000 139.245
57.24000 153.085
57.28000 138.833
57.32000 143.354
57.36000 144.621
57.40000 143.351
57.44000 146.361
57.48000 140.926
57.52000 142.153
57.56000 147.645
57.60000 148.762
57.64000 143.056
57.68000 136.075
57.72000 147.312
57.76000 142.636
57.80000 148.703
57.84000 136.167
57.88000 144.839
57.92000 146.266
57.96000 143.927
58.00000 142.527
58.04000 141.971
58.08000 147.330
58.12000 140.026
58.16000 140.413
58.20000 137.704
58.24000 147.203
58.28000 137.271
58.32000 127.057
58.36000 144.936
58.40000 149.005
58.44000 138.817
58.48000 135.699
58.52000 136.264
58.56000 147.815
58.60000 131.390
58.64000 141.527
58.68000 136.834
58.72000 138.845
58.76000 142.317
58.80000 137.417
58.84000 135.059
58.88000 128.858
58.92000 143.014
58.96000 137.206
59.00000 134.976
59.04000 134.565
59.08000 137.259
59.12000 137.547
59.16000 127.918
59.20000 138.677
59.24000 133.158
59.28000 136.381
59.32000 123.140
59.36000 124.666
59.40000 134.770
59.44000 133.579
59.48000 132.660
59.52000 131.226
59.56000 134.751
59.60000 136.170
59.64000 126.471
59.68000 125.499
59.72000 130.459
59.76000 125.863
59.80000 122.393
59.84000 132.671
59.88000 129.641
59.92000 125.880
59.96000 135.133
60.00000 134.610
60.04000 138.204
60.08000 132.075
60.12000 135.464
60.16000 125.239
60.20000 137.827
60.24000 128.887
60.28000 148.707
60.32000 135.202
60.36000 132.650
60.40000 128.752
60.44000 127.208
60.48000 140.932
60.52000 139.313
60.56000 126.439
60.60000 130.759
60.64000 130.113
60.68000 129.185
60.72000 130.566
60.76000 125.200
60.80000 126.997
60.84000 124.389
60.88000 128.392
60.92000 133.403
60.96000 129.236
61.00000 135.590
61.04000 145.700
61.08000 144.482
61.12000 141.179
61.16000 138.012
61.20000 136.039
61.24000 132.859
61.28000 129.573
61.32000 137.218
61.36000 139.210
61.40000 143.077
61.44000 141.147
61.48000 145.331
61.52000 172.499
61.56000 212.261
61.60000 261.523
61.64000 273.500
61.68000 304.765
61.72000 315.069
61.76000 302.499
61.80000 233.390
61.84000 183.073
61.88000 163.413
61.92000 142.113
61.96000 139.295
62.00000 150.200
62.04000 143.497
62.08000 135.444
62.12000 144.179
62.16000 138.001
62.20000 138.505
62.24000 135.304
62.28000 137.452
62.32000 145.086
62.36000 148.986
62.40000 142.813
62.44000 143.783
62.48000 148.165
62.52000 142.787
62.56000 144.561
62.60000 143.570
62.64000 148.158
62.68000 137.821
62.72000 143.416
62.76000 133.436
62.80000 146.915
62.84000 140.506
62.88000 142.312
62.92000 159.875
62.96000 135.488
63.00000 146.139
63.04000 147.202
63.08000 146.707
63.12000 139.797
63.16000 147.246
63.20000 140.186
63.24000 146.276
63.28000 145.974
63.32000 148.768
63.36000 153.981
63.40000 150.260
63.44000 150.019
63.48000 155.127
63.52000 144.890
63.56000 156.146
63.60000 150.278
63.64000 162.388
63.68000 154.028
63.72000 160.491
63.76000 152.976
63.80000 153.094
63.84000 164.073
63.88000 158.421
63.92000 158.857
63.96000 144.236
64.00000 149.884
64.04000 149.307
64.08000 161.033
64.12000 158.125
64.16000 163.750
64.20000 163.168
64.24000 174.299
64.28000 169.251
64.32000 167.209
64.36000 164.073
64.40000 167.650
64.44000 167.374
64.48000 163.122
64.52000 168.455
64.56000 168.131
64.60000 171.607
64.64000 170.023
64.68000 178.299
64.72000 177.277
64.76000 190.276
64.80000 175.796
64.84000 183.977
64.88000 183.171
64.92000 192.375
64.96000 193.990
65.00000 192.204
65.04000 205.524
65.08000 213.103
65.12000 203.887
65.16000 209.353
65.20000 219.506
65.24000 240.300
65.28000 263.523
65.32000 277.257
65.36000 291.205
65.40000 312.166
65.44000 332.299
65.48000 362.636
65.52000 378.075
65.56000 414.160
65.60000 441.370
65.64000 480.608
65.68000 573.933
65.72000 713.690
65.76000 954.274
65.80000 1157.378
65.84000 1257.618
65.88000 1292.969
65.92000 1222.625
65.96000 1079.351
66.00000 740.747
66.04000 493.905
66.08000 399.109
66.12000 355.028
66.16000 347.215
66.20000 347.113
66.24000 343.292
66.28000 358.984
66.32000 446.769
66.36000 466.616
66.40000 488.027
66.44000 477.439
66.48000 495.396
66.52000 444.454
66.56000 395.176
66.60000 347.681
66.64000 335.985
66.68000 337.845
66.72000 339.319
66.76000 313.150
66.80000 335.743
66.84000 346.863
66.88000 337.635
66.92000 355.360
66.96000 370.370
67.00000 348.668
67.04000 363.761
67.08000 365.539
67.12000 386.911
67.16000 396.158
67.20000 379.056
67.24000 387.660
67.28000 407.784
67.32000 404.694
67.36000 421.076
67.40000 423.377
67.44000 420.977
67.48000 426.455
67.52000 432.807
67.56000 438.387
67.60000 441.101
67.64000 470.845
67.68000 472.499
67.72000 503.514
67.76000 481.533
67.80000 496.516
67.84000 502.658
67.88000 524.849
67.92000 529.115
67.96000 551.636
68.00000 570.872
68.04000 583.150
68.08000 575.839
68.12000 590.536
68.16000 626.951
68.20000 644.258
68.24000 650.286
68.28000 675.227
68.32000 702.490
68.36000 701.670
68.40000 767.545
68.44000 784.768
68.48000 817.639
68.52000 875.883
68.56000 942.830
68.60000 1086.786
68.64000 1274.535
68.68000 1489.846
68.72000 1783.957
68.76000 1995.252
68.80000 2339.175
68.84000 2852.871
68.88000 3852.040
68.92000 7111.885
68.96000 17128.129
69.00000 37177.453
69.04000 57523.035
69.08000 67583.711
69.12000 69854.359
69.16000 72913.992
69.20000 72134.617
69.24000 59759.805
69.28000 45060.504
69.32000 37914.262
69.36000 33989.777
69.40000 27617.418
69.44000 16341.886
69.48000 7454.779
69.52000 3504.778
69.56000 2211.475
69.60000 1705.074
69.64000 1386.978
69.68000 1230.663
69.72000 1131.839
69.76000 1003.904
69.80000 895.022
69.84000 872.736
69.88000 838.112
69.92000 792.058
69.96000 735.875
70.00000 732.349