File: XRD/22-09-2025 Dep 2/XY Data/BTO_Mapping_Theta2Theta_22-09-2025_001_67_9-010_-4-339.xy
20.00000 579.765
20.04000 559.642
20.08000 535.078
20.12000 565.318
20.16000 565.953
20.20000 568.286
20.24000 571.759
20.28000 584.759
20.32000 544.614
20.36000 560.433
20.40000 560.767
20.44000 558.855
20.48000 552.384
20.52000 557.622
20.56000 576.770
20.60000 565.326
20.64000 552.006
20.68000 568.096
20.72000 572.100
20.76000 562.828
20.80000 553.652
20.84000 542.153
20.88000 579.101
20.92000 566.560
20.96000 584.356
21.00000 568.877
21.04000 580.986
21.08000 571.083
21.12000 560.982
21.16000 556.292
21.20000 571.697
21.24000 557.542
21.28000 558.597
21.32000 556.337
21.36000 550.427
21.40000 565.383
21.44000 567.232
21.48000 563.872
21.52000 562.012
21.56000 549.650
21.60000 557.597
21.64000 572.114
21.68000 586.904
21.72000 583.569
21.76000 601.243
21.80000 604.696
21.84000 642.312
21.88000 645.405
21.92000 677.641
21.96000 727.675
22.00000 754.679
22.04000 791.544
22.08000 785.383
22.12000 772.084
22.16000 788.822
22.20000 776.266
22.24000 709.823
22.28000 696.998
22.32000 656.416
22.36000 631.282
22.40000 594.844
22.44000 600.428
22.48000 581.206
22.52000 545.952
22.56000 557.776
22.60000 530.830
22.64000 550.797
22.68000 539.678
22.72000 535.321
22.76000 547.866
22.80000 524.015
22.84000 536.379
22.88000 538.491
22.92000 510.430
22.96000 524.541
23.00000 516.084
23.04000 512.642
23.08000 529.465
23.12000 513.026
23.16000 521.607
23.20000 524.250
23.24000 516.672
23.28000 513.942
23.32000 525.439
23.36000 545.634
23.40000 525.823
23.44000 512.054
23.48000 538.020
23.52000 517.243
23.56000 504.136
23.60000 513.153
23.64000 509.501
23.68000 526.317
23.72000 502.639
23.76000 527.456
23.80000 542.836
23.84000 514.767
23.88000 497.353
23.92000 524.768
23.96000 503.189
24.00000 526.554
24.04000 511.888
24.08000 511.099
24.12000 520.841
24.16000 544.277
24.20000 507.848
24.24000 513.891
24.28000 507.490
24.32000 499.455
24.36000 507.091
24.40000 503.266
24.44000 496.490
24.48000 499.582
24.52000 510.467
24.56000 514.552
24.60000 496.617
24.64000 487.200
24.68000 492.638
24.72000 476.731
24.76000 480.987
24.80000 498.932
24.84000 484.490
24.88000 495.741
24.92000 481.563
24.96000 473.770
25.00000 476.621
25.04000 464.487
25.08000 471.563
25.12000 469.324
25.16000 470.885
25.20000 466.678
25.24000 482.329
25.28000 481.083
25.32000 484.493
25.36000 474.728
25.40000 470.723
25.44000 480.445
25.48000 464.862
25.52000 466.409
25.56000 483.483
25.60000 475.962
25.64000 463.044
25.68000 460.881
25.72000 478.272
25.76000 483.400
25.80000 489.274
25.84000 477.617
25.88000 455.008
25.92000 474.623
25.96000 463.430
26.00000 453.160
26.04000 471.251
26.08000 453.936
26.12000 475.348
26.16000 451.344
26.20000 458.356
26.24000 468.524
26.28000 464.558
26.32000 463.798
26.36000 462.649
26.40000 462.946
26.44000 445.974
26.48000 446.077
26.52000 454.438
26.56000 474.274
26.60000 462.305
26.64000 459.234
26.68000 463.489
26.72000 453.794
26.76000 448.795
26.80000 468.503
26.84000 449.603
26.88000 430.094
26.92000 436.482
26.96000 440.509
27.00000 448.812
27.04000 454.082
27.08000 434.048
27.12000 442.781
27.16000 437.224
27.20000 448.964
27.24000 446.623
27.28000 460.962
27.32000 447.608
27.36000 438.616
27.40000 441.182
27.44000 433.731
27.48000 447.167
27.52000 435.080
27.56000 450.437
27.60000 454.137
27.64000 443.628
27.68000 436.091
27.72000 438.421
27.76000 438.214
27.80000 429.062
27.84000 443.214
27.88000 434.078
27.92000 435.694
27.96000 439.302
28.00000 424.576
28.04000 428.999
28.08000 425.949
28.12000 428.628
28.16000 433.232
28.20000 443.965
28.24000 445.778
28.28000 431.933
28.32000 438.878
28.36000 451.486
28.40000 427.859
28.44000 427.242
28.48000 431.211
28.52000 420.942
28.56000 432.627
28.60000 414.514
28.64000 420.303
28.68000 429.771
28.72000 427.483
28.76000 417.834
28.80000 440.168
28.84000 444.167
28.88000 426.718
28.92000 415.707
28.96000 428.348
29.00000 429.525
29.04000 424.947
29.08000 397.936
29.12000 410.383
29.16000 427.225
29.20000 399.804
29.24000 410.971
29.28000 403.085
29.32000 411.609
29.36000 420.728
29.40000 418.262
29.44000 429.655
29.48000 422.708
29.52000 423.686
29.56000 411.712
29.60000 441.092
29.64000 430.432
29.68000 439.786
29.72000 416.319
29.76000 421.229
29.80000 408.154
29.84000 433.049
29.88000 445.041
29.92000 448.778
29.96000 464.769
30.00000 460.362
30.04000 451.909
30.08000 473.332
30.12000 442.984
30.16000 451.006
30.20000 440.300
30.24000 464.195
30.28000 435.749
30.32000 424.811
30.36000 442.129
30.40000 439.086
30.44000 430.887
30.48000 445.770
30.52000 456.308
30.56000 436.991
30.60000 455.529
30.64000 470.830
30.68000 459.622
30.72000 480.945
30.76000 471.345
30.80000 479.369
30.84000 488.031
30.88000 518.886
30.92000 537.932
30.96000 583.382
31.00000 629.872
31.04000 704.506
31.08000 779.226
31.12000 945.476
31.16000 1181.506
31.20000 1541.612
31.24000 1971.980
31.28000 2489.548
31.32000 2932.499
31.36000 3283.792
31.40000 3389.663
31.44000 3295.531
31.48000 3058.068
31.52000 2566.613
31.56000 2052.108
31.60000 1648.071
31.64000 1308.658
31.68000 1033.850
31.72000 865.093
31.76000 735.120
31.80000 658.900
31.84000 611.668
31.88000 545.960
31.92000 517.910
31.96000 478.947
32.00000 481.123
32.04000 453.776
32.08000 462.367
32.12000 444.092
32.16000 419.691
32.20000 420.209
32.24000 424.879
32.28000 409.889
32.32000 402.620
32.36000 403.865
32.40000 414.927
32.44000 395.437
32.48000 403.730
32.52000 370.673
32.56000 383.024
32.60000 394.290
32.64000 402.952
32.68000 383.531
32.72000 387.523
32.76000 372.506
32.80000 391.879
32.84000 424.301
32.88000 423.354
32.92000 425.241
32.96000 421.678
33.00000 430.169
33.04000 400.910
33.08000 389.523
33.12000 373.271
33.16000 349.516
33.20000 363.456
33.24000 374.292
33.28000 347.841
33.32000 357.357
33.36000 348.006
33.40000 347.035
33.44000 366.285
33.48000 343.093
33.52000 332.751
33.56000 351.440
33.60000 343.820
33.64000 345.023
33.68000 336.121
33.72000 349.564
33.76000 335.613
33.80000 348.145
33.84000 349.005
33.88000 340.718
33.92000 337.142
33.96000 337.793
34.00000 334.561
34.04000 342.402
34.08000 331.221
34.12000 355.458
34.16000 345.309
34.20000 348.529
34.24000 336.605
34.28000 343.394
34.32000 328.481
34.36000 349.638
34.40000 348.796
34.44000 325.356
34.48000 329.782
34.52000 325.267
34.56000 335.781
34.60000 328.698
34.64000 325.463
34.68000 329.559
34.72000 319.525
34.76000 330.645
34.80000 341.977
34.84000 325.537
34.88000 316.408
34.92000 330.822
34.96000 339.968
35.00000 325.402
35.04000 315.986
35.08000 320.840
35.12000 316.716
35.16000 304.440
35.20000 327.290
35.24000 336.915
35.28000 317.217
35.32000 333.900
35.36000 323.895
35.40000 313.822
35.44000 322.025
35.48000 308.336
35.52000 318.549
35.56000 310.093
35.60000 311.013
35.64000 299.665
35.68000 317.012
35.72000 301.405
35.76000 304.027
35.80000 312.604
35.84000 299.462
35.88000 302.575
35.92000 309.398
35.96000 303.108
36.00000 311.254
36.04000 302.937
36.08000 307.536
36.12000 310.059
36.16000 294.318
36.20000 288.217
36.24000 302.154
36.28000 294.707
36.32000 311.427
36.36000 291.948
36.40000 293.702
36.44000 294.715
36.48000 291.306
36.52000 296.840
36.56000 291.171
36.60000 299.987
36.64000 298.335
36.68000 298.882
36.72000 292.714
36.76000 316.780
36.80000 298.590
36.84000 307.509
36.88000 299.774
36.92000 287.217
36.96000 306.038
37.00000 308.111
37.04000 300.907
37.08000 308.117
37.12000 318.466
37.16000 306.782
37.20000 309.387
37.24000 293.228
37.28000 310.930
37.32000 314.567
37.36000 298.458
37.40000 305.353
37.44000 307.741
37.48000 299.526
37.52000 285.598
37.56000 294.999
37.60000 284.631
37.64000 298.786
37.68000 291.149
37.72000 291.706
37.76000 295.641
37.80000 298.605
37.84000 291.117
37.88000 290.539
37.92000 291.611
37.96000 295.718
38.00000 295.405
38.04000 313.235
38.08000 292.616
38.12000 293.934
38.16000 315.366
38.20000 311.341
38.24000 319.357
38.28000 323.298
38.32000 346.500
38.36000 351.025
38.40000 369.586
38.44000 407.132
38.48000 465.857
38.52000 540.177
38.56000 627.783
38.60000 739.479
38.64000 869.677
38.68000 977.856
38.72000 1005.590
38.76000 1041.892
38.80000 995.162
38.84000 887.918
38.88000 736.290
38.92000 638.384
38.96000 526.739
39.00000 448.306
39.04000 397.034
39.08000 358.050
39.12000 331.259
39.16000 323.008
39.20000 323.614
39.24000 297.998
39.28000 281.214
39.32000 296.846
39.36000 293.937
39.40000 299.709
39.44000 285.598
39.48000 284.835
39.52000 283.046
39.56000 278.083
39.60000 279.328
39.64000 278.438
39.68000 275.768
39.72000 273.787
39.76000 280.246
39.80000 271.491
39.84000 272.769
39.88000 281.154
39.92000 271.130
39.96000 267.871
40.00000 264.844
40.04000 261.537
40.08000 254.830
40.12000 272.599
40.16000 242.339
40.20000 262.737
40.24000 270.567
40.28000 260.282
40.32000 253.128
40.36000 258.895
40.40000 261.717
40.44000 257.492
40.48000 263.526
40.52000 255.672
40.56000 256.371
40.60000 261.617
40.64000 254.857
40.68000 256.804
40.72000 258.814
40.76000 262.024
40.80000 254.002
40.84000 252.276
40.88000 263.049
40.92000 242.294
40.96000 241.461
41.00000 253.194
41.04000 261.809
41.08000 251.049
41.12000 240.545
41.16000 238.503
41.20000 247.287
41.24000 245.148
41.28000 249.634
41.32000 236.459
41.36000 245.309
41.40000 241.302
41.44000 245.577
41.48000 246.189
41.52000 241.168
41.56000 240.020
41.60000 244.889
41.64000 246.631
41.68000 253.830
41.72000 230.435
41.76000 252.009
41.80000 250.962
41.84000 240.189
41.88000 256.915
41.92000 236.648
41.96000 237.737
42.00000 245.766
42.04000 232.960
42.08000 252.337
42.12000 247.799
42.16000 240.798
42.20000 238.715
42.24000 247.004
42.28000 232.766
42.32000 245.624
42.36000 249.667
42.40000 234.928
42.44000 224.780
42.48000 235.973
42.52000 249.179
42.56000 224.149
42.60000 241.750
42.64000 240.371
42.68000 247.811
42.72000 231.830
42.76000 226.781
42.80000 226.264
42.84000 229.599
42.88000 233.542
42.92000 241.246
42.96000 225.228
43.00000 237.301
43.04000 238.695
43.08000 235.693
43.12000 230.677
43.16000 230.856
43.20000 226.728
43.24000 227.154
43.28000 242.480
43.32000 223.195
43.36000 233.178
43.40000 229.156
43.44000 225.197
43.48000 223.486
43.52000 232.368
43.56000 212.159
43.60000 229.908
43.64000 223.401
43.68000 223.397
43.72000 226.645
43.76000 224.902
43.80000 227.801
43.84000 216.323
43.88000 234.292
43.92000 235.014
43.96000 225.731
44.00000 221.154
44.04000 222.674
44.08000 238.050
44.12000 227.102
44.16000 236.563
44.20000 233.668
44.24000 228.036
44.28000 232.826
44.32000 240.854
44.36000 232.202
44.40000 241.238
44.44000 235.807
44.48000 233.762
44.52000 237.275
44.56000 241.686
44.60000 235.965
44.64000 248.558
44.68000 256.025
44.72000 265.663
44.76000 261.880
44.80000 279.780
44.84000 299.222
44.88000 327.135
44.92000 331.300
44.96000 358.653
45.00000 372.404
45.04000 381.809
45.08000 386.747
45.12000 404.296
45.16000 412.305
45.20000 394.162
45.24000 385.768
45.28000 382.365
45.32000 350.643
45.36000 352.446
45.40000 347.539
45.44000 316.016
45.48000 297.052
45.52000 287.941
45.56000 292.348
45.60000 263.775
45.64000 262.109
45.68000 266.460
45.72000 256.016
45.76000 247.768
45.80000 239.400
45.84000 235.678
45.88000 222.119
45.92000 239.169
45.96000 226.359
46.00000 236.087
46.04000 221.464
46.08000 219.205
46.12000 207.970
46.16000 221.106
46.20000 203.499
46.24000 215.890
46.28000 213.859
46.32000 198.072
46.36000 207.854
46.40000 206.722
46.44000 204.485
46.48000 210.237
46.52000 213.648
46.56000 205.249
46.60000 212.126
46.64000 206.493
46.68000 197.272
46.72000 193.045
46.76000 188.656
46.80000 193.296
46.84000 202.345
46.88000 200.981
46.92000 197.985
46.96000 203.362
47.00000 190.599
47.04000 191.910
47.08000 206.084
47.12000 190.979
47.16000 199.934
47.20000 186.398
47.24000 194.662
47.28000 188.625
47.32000 190.483
47.36000 198.305
47.40000 196.939
47.44000 194.107
47.48000 186.696
47.52000 188.859
47.56000 195.632
47.60000 189.621
47.64000 182.014
47.68000 177.614
47.72000 191.755
47.76000 183.659
47.80000 195.896
47.84000 190.879
47.88000 183.067
47.92000 184.341
47.96000 188.379
48.00000 179.249
48.04000 182.360
48.08000 181.662
48.12000 177.729
48.16000 188.284
48.20000 190.330
48.24000 190.908
48.28000 170.919
48.32000 189.188
48.36000 195.464
48.40000 190.716
48.44000 181.279
48.48000 185.330
48.52000 182.995
48.56000 185.910
48.60000 184.071
48.64000 192.735
48.68000 181.098
48.72000 183.062
48.76000 178.655
48.80000 190.115
48.84000 177.593
48.88000 186.431
48.92000 186.504
48.96000 182.362
49.00000 169.046
49.04000 189.740
49.08000 183.355
49.12000 183.213
49.16000 180.519
49.20000 179.802
49.24000 171.916
49.28000 166.132
49.32000 171.627
49.36000 185.257
49.40000 186.118
49.44000 176.011
49.48000 172.242
49.52000 168.659
49.56000 171.005
49.60000 175.096
49.64000 184.799
49.68000 187.791
49.72000 175.049
49.76000 177.114
49.80000 182.551
49.84000 176.180
49.88000 172.233
49.92000 174.755
49.96000 190.691
50.00000 180.660
50.04000 172.444
50.08000 187.943
50.12000 183.467
50.16000 192.981
50.20000 193.214
50.24000 180.697
50.28000 187.882
50.32000 177.627
50.36000 200.219
50.40000 197.048
50.44000 182.674
50.48000 198.919
50.52000 200.004
50.56000 219.608
50.60000 235.818
50.64000 247.659
50.68000 255.282
50.72000 269.419
50.76000 254.307
50.80000 261.372
50.84000 252.937
50.88000 242.931
50.92000 245.123
50.96000 222.401
51.00000 203.888
51.04000 212.762
51.08000 198.685
51.12000 202.539
51.16000 194.541
51.20000 184.568
51.24000 189.850
51.28000 179.669
51.32000 183.287
51.36000 177.597
51.40000 184.290
51.44000 168.557
51.48000 169.562
51.52000 164.045
51.56000 179.523
51.60000 178.129
51.64000 176.564
51.68000 167.638
51.72000 169.790
51.76000 174.035
51.80000 159.363
51.84000 164.136
51.88000 158.849
51.92000 168.906
51.96000 174.645
52.00000 160.470
52.04000 176.637
52.08000 153.175
52.12000 150.092
52.16000 154.300
52.20000 163.984
52.24000 175.385
52.28000 159.907
52.32000 163.668
52.36000 159.032
52.40000 162.324
52.44000 149.509
52.48000 164.932
52.52000 165.815
52.56000 163.867
52.60000 168.496
52.64000 165.308
52.68000 153.381
52.72000 164.833
52.76000 167.326
52.80000 162.343
52.84000 166.484
52.88000 166.773
52.92000 150.349
52.96000 159.003
53.00000 159.355
53.04000 155.268
53.08000 165.911
53.12000 158.099
53.16000 146.502
53.20000 160.877
53.24000 161.691
53.28000 157.889
53.32000 174.354
53.36000 167.753
53.40000 168.108
53.44000 168.084
53.48000 169.222
53.52000 170.360
53.56000 157.223
53.60000 159.963
53.64000 160.620
53.68000 162.409
53.72000 153.669
53.76000 154.589
53.80000 172.232
53.84000 154.587
53.88000 152.292
53.92000 157.545
53.96000 151.139
54.00000 160.615
54.04000 165.284
54.08000 154.156
54.12000 170.833
54.16000 150.420
54.20000 157.945
54.24000 148.371
54.28000 156.981
54.32000 156.471
54.36000 153.172
54.40000 158.464
54.44000 147.819
54.48000 158.227
54.52000 155.674
54.56000 155.254
54.60000 159.809
54.64000 156.683
54.68000 149.321
54.72000 157.696
54.76000 163.645
54.80000 155.590
54.84000 156.496
54.88000 165.432
54.92000 160.209
54.96000 159.119
55.00000 162.406
55.04000 154.928
55.08000 166.861
55.12000 161.938
55.16000 158.998
55.20000 161.051
55.24000 170.434
55.28000 164.237
55.32000 173.936
55.36000 176.833
55.40000 182.883
55.44000 187.332
55.48000 202.814
55.52000 198.626
55.56000 203.715
55.60000 226.691
55.64000 234.398
55.68000 254.278
55.72000 303.490
55.76000 331.670
55.80000 383.695
55.84000 431.976
55.88000 473.901
55.92000 510.834
55.96000 541.194
56.00000 544.849
56.04000 514.801
56.08000 491.947
56.12000 460.938
56.16000 419.820
56.20000 373.100
56.24000 333.518
56.28000 293.492
56.32000 274.513
56.36000 247.841
56.40000 224.896
56.44000 220.579
56.48000 210.215
56.52000 189.467
56.56000 193.955
56.60000 184.304
56.64000 176.105
56.68000 167.861
56.72000 171.942
56.76000 153.981
56.80000 175.435
56.84000 165.834
56.88000 150.700
56.92000 151.372
56.96000 173.631
57.00000 161.680
57.04000 157.500
57.08000 142.187
57.12000 149.739
57.16000 156.728
57.20000 144.629
57.24000 143.567
57.28000 135.853
57.32000 144.021
57.36000 155.682
57.40000 150.111
57.44000 138.775
57.48000 142.497
57.52000 145.232
57.56000 139.034
57.60000 143.887
57.64000 145.280
57.68000 141.406
57.72000 138.219
57.76000 141.940
57.80000 150.528
57.84000 148.014
57.88000 133.143
57.92000 138.463
57.96000 144.355
58.00000 150.615
58.04000 154.755
58.08000 143.295
58.12000 145.459
58.16000 134.225
58.20000 144.306
58.24000 138.165
58.28000 128.492
58.32000 146.761
58.36000 137.165
58.40000 133.080
58.44000 155.553
58.48000 143.984
58.52000 140.785
58.56000 143.306
58.60000 140.324
58.64000 135.038
58.68000 137.663
58.72000 132.057
58.76000 125.977
58.80000 131.272
58.84000 135.509
58.88000 137.782
58.92000 134.261
58.96000 139.949
59.00000 138.236
59.04000 144.314
59.08000 134.332
59.12000 143.478
59.16000 129.003
59.20000 140.070
59.24000 134.225
59.28000 138.341
59.32000 137.426
59.36000 129.266
59.40000 139.881
59.44000 128.861
59.48000 140.410
59.52000 134.781
59.56000 138.964
59.60000 134.195
59.64000 125.887
59.68000 131.292
59.72000 123.437
59.76000 142.969
59.80000 134.793
59.84000 136.883
59.88000 140.959
59.92000 141.801
59.96000 129.755
60.00000 149.251
60.04000 136.287
60.08000 135.683
60.12000 138.144
60.16000 132.868
60.20000 151.227
60.24000 135.877
60.28000 130.211
60.32000 137.166
60.36000 131.484
60.40000 136.345
60.44000 136.294
60.48000 138.060
60.52000 153.388
60.56000 145.397
60.60000 139.747
60.64000 139.498
60.68000 127.634
60.72000 137.757
60.76000 127.709
60.80000 134.740
60.84000 139.548
60.88000 131.384
60.92000 131.167
60.96000 128.965
61.00000 138.619
61.04000 121.771
61.08000 140.233
61.12000 144.255
61.16000 123.840
61.20000 130.748
61.24000 132.903
61.28000 136.367
61.32000 137.846
61.36000 135.130
61.40000 144.990
61.44000 146.193
61.48000 148.556
61.52000 174.543
61.56000 195.212
61.60000 264.757
61.64000 291.739
61.68000 310.709
61.72000 316.472
61.76000 303.241
61.80000 257.333
61.84000 188.591
61.88000 178.381
61.92000 154.524
61.96000 142.195
62.00000 152.914
62.04000 148.885
62.08000 134.101
62.12000 141.094
62.16000 132.189
62.20000 143.781
62.24000 138.338
62.28000 131.804
62.32000 142.803
62.36000 133.860
62.40000 143.007
62.44000 134.853
62.48000 139.240
62.52000 147.503
62.56000 150.983
62.60000 146.340
62.64000 139.685
62.68000 140.279
62.72000 131.827
62.76000 137.268
62.80000 134.367
62.84000 147.455
62.88000 146.650
62.92000 154.864
62.96000 146.137
63.00000 157.775
63.04000 147.975
63.08000 147.278
63.12000 142.622
63.16000 143.118
63.20000 144.012
63.24000 134.531
63.28000 152.488
63.32000 156.232
63.36000 146.836
63.40000 147.543
63.44000 146.264
63.48000 148.268
63.52000 144.855
63.56000 158.825
63.60000 158.834
63.64000 143.431
63.68000 151.879
63.72000 152.985
63.76000 154.921
63.80000 158.778
63.84000 145.510
63.88000 156.985
63.92000 150.218
63.96000 151.137
64.00000 157.612
64.04000 166.278
64.08000 164.262
64.12000 161.121
64.16000 150.535
64.20000 176.664
64.24000 173.433
64.28000 153.953
64.32000 154.563
64.36000 160.778
64.40000 169.511
64.44000 162.549
64.48000 162.745
64.52000 167.054
64.56000 185.207
64.60000 181.030
64.64000 176.915
64.68000 162.912
64.72000 181.162
64.76000 181.472
64.80000 175.412
64.84000 194.048
64.88000 194.907
64.92000 177.249
64.96000 190.372
65.00000 200.454
65.04000 193.615
65.08000 201.591
65.12000 203.643
65.16000 219.134
65.20000 222.171
65.24000 242.549
65.28000 268.365
65.32000 283.112
65.36000 305.589
65.40000 331.388
65.44000 354.403
65.48000 378.873
65.52000 402.931
65.56000 430.354
65.60000 448.725
65.64000 472.150
65.68000 547.263
65.72000 668.378
65.76000 933.419
65.80000 1112.367
65.84000 1213.828
65.88000 1250.030
65.92000 1210.292
65.96000 1087.731
66.00000 769.298
66.04000 511.286
66.08000 418.918
66.12000 351.573
66.16000 338.112
66.20000 323.758
66.24000 342.628
66.28000 358.888
66.32000 402.454
66.36000 463.946
66.40000 485.649
66.44000 497.285
66.48000 479.822
66.52000 460.143
66.56000 382.515
66.60000 350.909
66.64000 340.824
66.68000 331.951
66.72000 317.212
66.76000 324.220
66.80000 330.279
66.84000 338.400
66.88000 337.288
66.92000 343.423
66.96000 359.149
67.00000 344.353
67.04000 360.157
67.08000 368.867
67.12000 386.032
67.16000 374.330
67.20000 388.687
67.24000 396.709
67.28000 402.707
67.32000 405.338
67.36000 409.906
67.40000 425.802
67.44000 422.815
67.48000 441.044
67.52000 461.094
67.56000 436.040
67.60000 464.369
67.64000 475.864
67.68000 487.020
67.72000 482.419
67.76000 482.871
67.80000 518.670
67.84000 514.955
67.88000 525.849
67.92000 537.457
67.96000 549.092
68.00000 549.165
68.04000 558.231
68.08000 579.749
68.12000 602.457
68.16000 587.104
68.20000 611.432
68.24000 634.650
68.28000 647.716
68.32000 684.931
68.36000 700.909
68.40000 738.156
68.44000 782.927
68.48000 819.811
68.52000 855.328
68.56000 933.104
68.60000 1025.093
68.64000 1236.249
68.68000 1472.003
68.72000 1727.421
68.76000 1963.101
68.80000 2240.608
68.84000 2679.611
68.88000 3545.785
68.92000 6192.675
68.96000 14601.587
69.00000 33750.246
69.04000 54866.219
69.08000 66364.875
69.12000 69248.445
69.16000 72124.414
69.20000 72262.055
69.24000 61235.230
69.28000 46617.762
69.32000 38399.109
69.36000 34388.836
69.40000 28712.170
69.44000 17928.285
69.48000 8337.734
69.52000 3804.942
69.56000 2315.139
69.60000 1729.412
69.64000 1431.697
69.68000 1253.001
69.72000 1105.430
69.76000 1012.547
69.80000 933.078
69.84000 892.262
69.88000 813.841
69.92000 786.620
69.96000 776.286
70.00000 728.000