File: XRD/22-09-2025 Dep 2/XY Data/BTO_Mapping_Theta2Theta_22-09-2025_001_25_-8-901_38-997.xy
20.00000 560.904
20.04000 562.357
20.08000 566.789
20.12000 563.405
20.16000 573.121
20.20000 571.390
20.24000 566.217
20.28000 555.291
20.32000 562.271
20.36000 567.503
20.40000 575.880
20.44000 547.198
20.48000 574.001
20.52000 574.225
20.56000 573.695
20.60000 565.050
20.64000 569.191
20.68000 554.629
20.72000 558.957
20.76000 571.292
20.80000 551.462
20.84000 564.007
20.88000 553.216
20.92000 565.576
20.96000 566.152
21.00000 554.513
21.04000 575.538
21.08000 548.948
21.12000 560.791
21.16000 561.011
21.20000 563.889
21.24000 569.044
21.28000 554.967
21.32000 550.620
21.36000 541.713
21.40000 568.649
21.44000 575.701
21.48000 554.023
21.52000 557.550
21.56000 566.235
21.60000 548.650
21.64000 559.572
21.68000 585.758
21.72000 587.952
21.76000 599.617
21.80000 626.504
21.84000 645.399
21.88000 689.804
21.92000 724.139
21.96000 759.617
22.00000 805.209
22.04000 821.760
22.08000 835.441
22.12000 815.794
22.16000 775.817
22.20000 751.487
22.24000 726.213
22.28000 675.353
22.32000 636.549
22.36000 619.905
22.40000 626.149
22.44000 588.775
22.48000 575.576
22.52000 562.960
22.56000 542.345
22.60000 560.269
22.64000 529.796
22.68000 549.203
22.72000 523.338
22.76000 541.274
22.80000 516.936
22.84000 525.744
22.88000 533.366
22.92000 518.686
22.96000 515.286
23.00000 515.104
23.04000 515.893
23.08000 519.449
23.12000 522.260
23.16000 520.877
23.20000 514.267
23.24000 519.203
23.28000 511.685
23.32000 521.988
23.36000 520.868
23.40000 506.827
23.44000 507.620
23.48000 491.260
23.52000 503.311
23.56000 479.677
23.60000 498.337
23.64000 508.848
23.68000 505.856
23.72000 503.701
23.76000 490.620
23.80000 492.801
23.84000 497.052
23.88000 485.356
23.92000 501.970
23.96000 496.259
24.00000 499.282
24.04000 504.972
24.08000 476.773
24.12000 490.091
24.16000 489.664
24.20000 484.455
24.24000 503.872
24.28000 482.443
24.32000 485.124
24.36000 488.490
24.40000 504.023
24.44000 478.243
24.48000 482.911
24.52000 479.386
24.56000 484.554
24.60000 495.772
24.64000 486.667
24.68000 477.970
24.72000 492.149
24.76000 470.341
24.80000 455.571
24.84000 498.411
24.88000 483.916
24.92000 497.534
24.96000 493.147
25.00000 480.173
25.04000 486.466
25.08000 464.416
25.12000 444.515
25.16000 471.299
25.20000 483.375
25.24000 463.310
25.28000 477.986
25.32000 476.070
25.36000 486.736
25.40000 474.325
25.44000 452.752
25.48000 471.408
25.52000 467.554
25.56000 464.846
25.60000 470.887
25.64000 461.989
25.68000 472.421
25.72000 473.715
25.76000 465.631
25.80000 467.143
25.84000 485.046
25.88000 458.406
25.92000 461.262
25.96000 477.637
26.00000 465.298
26.04000 453.172
26.08000 466.369
26.12000 476.343
26.16000 465.043
26.20000 464.746
26.24000 468.952
26.28000 461.209
26.32000 447.937
26.36000 467.616
26.40000 446.242
26.44000 459.028
26.48000 438.483
26.52000 449.435
26.56000 457.083
26.60000 452.466
26.64000 455.437
26.68000 440.016
26.72000 462.096
26.76000 439.806
26.80000 443.643
26.84000 438.587
26.88000 462.447
26.92000 437.092
26.96000 452.963
27.00000 439.895
27.04000 447.162
27.08000 448.358
27.12000 459.136
27.16000 443.405
27.20000 448.064
27.24000 429.001
27.28000 449.767
27.32000 432.504
27.36000 439.719
27.40000 435.105
27.44000 435.497
27.48000 434.797
27.52000 434.297
27.56000 442.831
27.60000 433.474
27.64000 423.156
27.68000 447.287
27.72000 436.377
27.76000 439.931
27.80000 434.158
27.84000 440.649
27.88000 438.445
27.92000 423.007
27.96000 434.328
28.00000 431.593
28.04000 436.220
28.08000 429.512
28.12000 435.465
28.16000 423.362
28.20000 434.996
28.24000 446.832
28.28000 437.890
28.32000 435.453
28.36000 425.345
28.40000 430.995
28.44000 441.550
28.48000 427.255
28.52000 419.746
28.56000 414.794
28.60000 419.868
28.64000 428.149
28.68000 427.727
28.72000 430.005
28.76000 431.367
28.80000 421.188
28.84000 417.493
28.88000 417.323
28.92000 426.255
28.96000 417.207
29.00000 399.305
29.04000 420.418
29.08000 401.925
29.12000 425.366
29.16000 400.722
29.20000 415.568
29.24000 413.785
29.28000 404.252
29.32000 425.014
29.36000 397.735
29.40000 424.768
29.44000 417.407
29.48000 433.409
29.52000 420.287
29.56000 417.614
29.60000 424.540
29.64000 421.810
29.68000 428.001
29.72000 418.921
29.76000 420.114
29.80000 439.449
29.84000 413.934
29.88000 423.149
29.92000 453.298
29.96000 461.478
30.00000 448.692
30.04000 453.376
30.08000 456.663
30.12000 459.793
30.16000 459.783
30.20000 464.402
30.24000 456.775
30.28000 430.344
30.32000 429.853
30.36000 439.410
30.40000 434.417
30.44000 436.943
30.48000 425.149
30.52000 440.492
30.56000 452.489
30.60000 438.575
30.64000 441.109
30.68000 417.320
30.72000 469.133
30.76000 465.402
30.80000 475.085
30.84000 478.645
30.88000 483.987
30.92000 519.719
30.96000 535.180
31.00000 594.733
31.04000 636.154
31.08000 724.184
31.12000 891.970
31.16000 1128.837
31.20000 1405.560
31.24000 1846.523
31.28000 2406.629
31.32000 2811.124
31.36000 3198.406
31.40000 3377.612
31.44000 3339.316
31.48000 3146.286
31.52000 2733.154
31.56000 2282.796
31.60000 1868.933
31.64000 1484.621
31.68000 1202.294
31.72000 962.976
31.76000 813.243
31.80000 701.778
31.84000 633.945
31.88000 560.378
31.92000 523.815
31.96000 493.642
32.00000 455.623
32.04000 455.913
32.08000 441.754
32.12000 423.727
32.16000 416.225
32.20000 418.672
32.24000 393.477
32.28000 401.258
32.32000 424.294
32.36000 399.660
32.40000 419.465
32.44000 401.293
32.48000 408.948
32.52000 406.392
32.56000 391.862
32.60000 396.603
32.64000 391.873
32.68000 392.346
32.72000 394.511
32.76000 388.626
32.80000 387.984
32.84000 417.696
32.88000 403.325
32.92000 402.058
32.96000 408.215
33.00000 396.806
33.04000 393.785
33.08000 388.488
33.12000 365.304
33.16000 365.337
33.20000 363.160
33.24000 350.779
33.28000 368.250
33.32000 378.050
33.36000 354.318
33.40000 357.999
33.44000 359.225
33.48000 345.146
33.52000 335.705
33.56000 361.971
33.60000 341.595
33.64000 338.577
33.68000 357.769
33.72000 325.234
33.76000 338.622
33.80000 358.354
33.84000 349.826
33.88000 327.829
33.92000 331.044
33.96000 342.009
34.00000 328.844
34.04000 345.465
34.08000 343.693
34.12000 338.541
34.16000 335.960
34.20000 356.281
34.24000 335.116
34.28000 326.715
34.32000 328.769
34.36000 335.799
34.40000 347.407
34.44000 337.654
34.48000 313.532
34.52000 341.703
34.56000 330.680
34.60000 318.086
34.64000 317.507
34.68000 329.469
34.72000 328.624
34.76000 316.078
34.80000 316.141
34.84000 327.421
34.88000 326.822
34.92000 313.981
34.96000 335.856
35.00000 331.048
35.04000 326.104
35.08000 318.110
35.12000 324.318
35.16000 292.333
35.20000 320.379
35.24000 315.393
35.28000 315.591
35.32000 311.978
35.36000 323.501
35.40000 314.647
35.44000 304.040
35.48000 320.830
35.52000 313.572
35.56000 313.473
35.60000 320.773
35.64000 319.827
35.68000 299.641
35.72000 320.782
35.76000 303.315
35.80000 303.595
35.84000 306.428
35.88000 321.583
35.92000 308.718
35.96000 302.706
36.00000 304.715
36.04000 317.411
36.08000 303.366
36.12000 311.684
36.16000 311.628
36.20000 316.552
36.24000 292.892
36.28000 306.619
36.32000 304.000
36.36000 303.725
36.40000 298.727
36.44000 296.292
36.48000 299.605
36.52000 307.394
36.56000 303.657
36.60000 302.380
36.64000 304.964
36.68000 305.483
36.72000 302.366
36.76000 293.377
36.80000 290.557
36.84000 305.581
36.88000 299.479
36.92000 305.768
36.96000 305.916
37.00000 308.182
37.04000 315.334
37.08000 301.225
37.12000 310.815
37.16000 310.321
37.20000 303.030
37.24000 318.141
37.28000 301.322
37.32000 303.155
37.36000 302.216
37.40000 298.798
37.44000 298.209
37.48000 296.514
37.52000 295.945
37.56000 297.893
37.60000 292.696
37.64000 300.417
37.68000 286.584
37.72000 280.935
37.76000 293.698
37.80000 295.208
37.84000 295.533
37.88000 296.871
37.92000 292.692
37.96000 307.254
38.00000 305.296
38.04000 306.042
38.08000 300.506
38.12000 304.303
38.16000 301.358
38.20000 303.316
38.24000 315.727
38.28000 326.705
38.32000 336.706
38.36000 339.008
38.40000 391.931
38.44000 398.714
38.48000 438.868
38.52000 519.713
38.56000 582.540
38.60000 720.587
38.64000 813.409
38.68000 901.201
38.72000 900.590
38.76000 920.500
38.80000 857.131
38.84000 808.013
38.88000 690.194
38.92000 570.329
38.96000 502.255
39.00000 429.712
39.04000 393.014
39.08000 353.548
39.12000 346.230
39.16000 320.042
39.20000 299.076
39.24000 307.014
39.28000 295.064
39.32000 286.344
39.36000 303.690
39.40000 281.608
39.44000 286.436
39.48000 268.000
39.52000 276.579
39.56000 275.414
39.60000 273.029
39.64000 284.168
39.68000 274.292
39.72000 267.276
39.76000 268.291
39.80000 267.609
39.84000 272.804
39.88000 258.936
39.92000 278.060
39.96000 268.276
40.00000 258.321
40.04000 272.119
40.08000 261.508
40.12000 258.801
40.16000 263.249
40.20000 260.658
40.24000 266.916
40.28000 273.568
40.32000 266.343
40.36000 273.805
40.40000 256.665
40.44000 257.071
40.48000 238.805
40.52000 257.634
40.56000 246.847
40.60000 246.343
40.64000 255.626
40.68000 239.265
40.72000 246.160
40.76000 239.510
40.80000 264.510
40.84000 268.689
40.88000 255.965
40.92000 265.471
40.96000 258.936
41.00000 257.719
41.04000 253.635
41.08000 244.020
41.12000 244.015
41.16000 251.689
41.20000 270.520
41.24000 257.508
41.28000 256.882
41.32000 239.112
41.36000 244.192
41.40000 253.979
41.44000 244.813
41.48000 240.664
41.52000 236.616
41.56000 242.689
41.60000 250.611
41.64000 242.925
41.68000 254.719
41.72000 244.517
41.76000 250.519
41.80000 247.956
41.84000 246.373
41.88000 226.886
41.92000 248.540
41.96000 244.980
42.00000 240.883
42.04000 239.176
42.08000 232.923
42.12000 238.931
42.16000 221.471
42.20000 241.050
42.24000 236.237
42.28000 226.861
42.32000 224.701
42.36000 234.629
42.40000 232.858
42.44000 234.812
42.48000 225.244
42.52000 241.256
42.56000 232.222
42.60000 245.873
42.64000 225.079
42.68000 230.196
42.72000 238.603
42.76000 237.817
42.80000 238.372
42.84000 235.775
42.88000 234.810
42.92000 242.273
42.96000 237.331
43.00000 221.355
43.04000 231.425
43.08000 229.627
43.12000 227.171
43.16000 230.514
43.20000 232.523
43.24000 238.226
43.28000 240.393
43.32000 229.391
43.36000 235.364
43.40000 226.551
43.44000 231.856
43.48000 243.339
43.52000 235.009
43.56000 233.030
43.60000 238.147
43.64000 223.402
43.68000 223.617
43.72000 228.851
43.76000 220.333
43.80000 222.318
43.84000 224.997
43.88000 221.780
43.92000 221.791
43.96000 222.056
44.00000 224.069
44.04000 232.866
44.08000 225.882
44.12000 225.916
44.16000 227.185
44.20000 225.285
44.24000 238.053
44.28000 231.875
44.32000 236.058
44.36000 238.143
44.40000 228.302
44.44000 227.200
44.48000 240.761
44.52000 236.295
44.56000 241.966
44.60000 235.834
44.64000 255.400
44.68000 257.528
44.72000 275.148
44.76000 277.870
44.80000 292.848
44.84000 326.659
44.88000 341.265
44.92000 373.908
44.96000 401.493
45.00000 416.082
45.04000 447.992
45.08000 452.954
45.12000 437.604
45.16000 437.182
45.20000 412.760
45.24000 392.129
45.28000 377.934
45.32000 348.716
45.36000 340.420
45.40000 318.099
45.44000 304.872
45.48000 295.252
45.52000 295.816
45.56000 276.055
45.60000 275.034
45.64000 260.813
45.68000 261.742
45.72000 247.057
45.76000 251.534
45.80000 242.682
45.84000 232.087
45.88000 239.769
45.92000 240.944
45.96000 231.425
46.00000 219.611
46.04000 211.626
46.08000 227.622
46.12000 210.606
46.16000 217.679
46.20000 224.106
46.24000 210.835
46.28000 207.625
46.32000 206.577
46.36000 205.937
46.40000 203.593
46.44000 202.480
46.48000 213.835
46.52000 199.899
46.56000 197.276
46.60000 209.039
46.64000 216.899
46.68000 205.094
46.72000 206.807
46.76000 204.582
46.80000 209.598
46.84000 185.081
46.88000 186.098
46.92000 206.890
46.96000 191.435
47.00000 193.901
47.04000 199.316
47.08000 187.347
47.12000 194.183
47.16000 190.544
47.20000 196.502
47.24000 185.611
47.28000 182.756
47.32000 194.407
47.36000 180.692
47.40000 188.249
47.44000 184.899
47.48000 196.196
47.52000 191.718
47.56000 187.260
47.60000 194.844
47.64000 189.157
47.68000 207.124
47.72000 196.614
47.76000 203.514
47.80000 191.280
47.84000 194.938
47.88000 186.011
47.92000 184.504
47.96000 186.127
48.00000 171.437
48.04000 188.038
48.08000 184.077
48.12000 185.376
48.16000 184.264
48.20000 190.261
48.24000 189.948
48.28000 183.094
48.32000 179.375
48.36000 177.493
48.40000 201.953
48.44000 180.951
48.48000 187.991
48.52000 187.797
48.56000 180.900
48.60000 183.558
48.64000 195.621
48.68000 182.932
48.72000 177.562
48.76000 192.370
48.80000 175.832
48.84000 175.365
48.88000 175.954
48.92000 178.218
48.96000 194.020
49.00000 182.116
49.04000 176.357
49.08000 173.332
49.12000 201.108
49.16000 186.828
49.20000 189.506
49.24000 196.906
49.28000 182.314
49.32000 187.576
49.36000 180.446
49.40000 181.436
49.44000 175.890
49.48000 173.638
49.52000 176.352
49.56000 189.841
49.60000 182.067
49.64000 173.998
49.68000 169.276
49.72000 179.398
49.76000 180.838
49.80000 172.465
49.84000 189.006
49.88000 172.339
49.92000 186.912
49.96000 179.558
50.00000 171.265
50.04000 180.858
50.08000 193.544
50.12000 182.669
50.16000 182.455
50.20000 181.951
50.24000 177.274
50.28000 172.362
50.32000 176.379
50.36000 187.181
50.40000 190.027
50.44000 196.955
50.48000 214.204
50.52000 222.056
50.56000 235.858
50.60000 248.778
50.64000 250.235
50.68000 264.595
50.72000 278.386
50.76000 272.814
50.80000 285.561
50.84000 271.347
50.88000 257.314
50.92000 257.944
50.96000 234.262
51.00000 220.110
51.04000 215.562
51.08000 209.820
51.12000 200.954
51.16000 193.422
51.20000 194.623
51.24000 189.858
51.28000 183.121
51.32000 186.462
51.36000 182.315
51.40000 187.678
51.44000 188.233
51.48000 183.410
51.52000 178.879
51.56000 174.630
51.60000 171.465
51.64000 163.165
51.68000 168.161
51.72000 176.480
51.76000 170.173
51.80000 175.242
51.84000 169.913
51.88000 162.613
51.92000 166.867
51.96000 172.789
52.00000 174.092
52.04000 171.167
52.08000 157.141
52.12000 168.584
52.16000 165.102
52.20000 164.104
52.24000 156.912
52.28000 160.849
52.32000 158.540
52.36000 153.242
52.40000 161.572
52.44000 159.287
52.48000 165.942
52.52000 155.885
52.56000 166.642
52.60000 172.344
52.64000 161.943
52.68000 161.898
52.72000 156.687
52.76000 166.714
52.80000 149.407
52.84000 155.041
52.88000 163.522
52.92000 157.263
52.96000 170.725
53.00000 166.839
53.04000 147.705
53.08000 167.056
53.12000 150.272
53.16000 160.803
53.20000 159.064
53.24000 163.942
53.28000 160.592
53.32000 170.542
53.36000 159.128
53.40000 177.428
53.44000 168.804
53.48000 154.708
53.52000 163.051
53.56000 161.815
53.60000 149.271
53.64000 160.008
53.68000 167.913
53.72000 169.378
53.76000 167.324
53.80000 167.875
53.84000 156.704
53.88000 162.810
53.92000 160.220
53.96000 160.800
54.00000 159.358
54.04000 160.118
54.08000 159.110
54.12000 148.640
54.16000 142.095
54.20000 154.135
54.24000 160.681
54.28000 149.081
54.32000 153.218
54.36000 158.081
54.40000 162.419
54.44000 155.453
54.48000 143.894
54.52000 158.528
54.56000 166.000
54.60000 161.626
54.64000 164.234
54.68000 151.561
54.72000 163.895
54.76000 149.940
54.80000 167.366
54.84000 154.986
54.88000 153.163
54.92000 160.536
54.96000 160.333
55.00000 165.018
55.04000 168.498
55.08000 154.676
55.12000 181.317
55.16000 166.043
55.20000 167.890
55.24000 156.762
55.28000 165.677
55.32000 166.052
55.36000 168.827
55.40000 183.001
55.44000 177.006
55.48000 194.594
55.52000 212.951
55.56000 216.831
55.60000 229.299
55.64000 257.237
55.68000 279.859
55.72000 302.266
55.76000 361.690
55.80000 396.839
55.84000 466.220
55.88000 515.158
55.92000 550.084
55.96000 559.539
56.00000 553.302
56.04000 571.901
56.08000 534.338
56.12000 504.834
56.16000 448.634
56.20000 410.351
56.24000 349.715
56.28000 322.879
56.32000 290.964
56.36000 259.266
56.40000 247.384
56.44000 238.866
56.48000 226.820
56.52000 199.398
56.56000 189.339
56.60000 189.704
56.64000 175.735
56.68000 175.850
56.72000 171.224
56.76000 179.080
56.80000 164.535
56.84000 154.601
56.88000 154.452
56.92000 157.896
56.96000 155.223
57.00000 164.008
57.04000 149.008
57.08000 154.500
57.12000 153.045
57.16000 144.633
57.20000 150.142
57.24000 142.156
57.28000 145.615
57.32000 139.949
57.36000 145.724
57.40000 146.655
57.44000 139.656
57.48000 133.570
57.52000 146.831
57.56000 146.063
57.60000 142.002
57.64000 142.538
57.68000 127.070
57.72000 142.196
57.76000 139.943
57.80000 139.703
57.84000 149.549
57.88000 132.615
57.92000 152.627
57.96000 143.976
58.00000 146.252
58.04000 142.018
58.08000 146.913
58.12000 141.543
58.16000 141.142
58.20000 140.749
58.24000 140.775
58.28000 135.787
58.32000 142.994
58.36000 141.192
58.40000 143.118
58.44000 147.813
58.48000 140.224
58.52000 139.294
58.56000 143.581
58.60000 138.423
58.64000 130.740
58.68000 135.872
58.72000 144.278
58.76000 145.572
58.80000 136.849
58.84000 133.682
58.88000 133.799
58.92000 131.983
58.96000 128.390
59.00000 139.815
59.04000 140.397
59.08000 129.528
59.12000 130.495
59.16000 131.410
59.20000 143.234
59.24000 136.467
59.28000 137.292
59.32000 139.740
59.36000 134.160
59.40000 136.083
59.44000 131.736
59.48000 142.000
59.52000 131.346
59.56000 128.261
59.60000 144.897
59.64000 133.993
59.68000 132.790
59.72000 140.060
59.76000 135.971
59.80000 148.481
59.84000 138.082
59.88000 135.570
59.92000 130.376
59.96000 131.701
60.00000 133.383
60.04000 132.522
60.08000 140.240
60.12000 139.242
60.16000 138.696
60.20000 126.050
60.24000 136.245
60.28000 137.288
60.32000 122.512
60.36000 133.500
60.40000 129.237
60.44000 133.310
60.48000 142.556
60.52000 136.582
60.56000 140.210
60.60000 131.676
60.64000 140.273
60.68000 138.366
60.72000 133.225
60.76000 144.357
60.80000 139.221
60.84000 136.911
60.88000 133.860
60.92000 140.120
60.96000 131.653
61.00000 138.695
61.04000 132.220
61.08000 140.093
61.12000 144.182
61.16000 144.673
61.20000 137.187
61.24000 133.282
61.28000 136.066
61.32000 141.702
61.36000 139.468
61.40000 144.543
61.44000 163.171
61.48000 156.774
61.52000 188.278
61.56000 226.279
61.60000 294.545
61.64000 343.825
61.68000 348.616
61.72000 357.763
61.76000 320.056
61.80000 269.171
61.84000 198.885
61.88000 184.387
61.92000 153.682
61.96000 153.552
62.00000 148.165
62.04000 152.880
62.08000 159.710
62.12000 147.232
62.16000 144.950
62.20000 146.894
62.24000 142.747
62.28000 142.296
62.32000 146.274
62.36000 145.485
62.40000 144.890
62.44000 142.915
62.48000 145.286
62.52000 136.187
62.56000 143.998
62.60000 143.222
62.64000 144.109
62.68000 146.477
62.72000 144.328
62.76000 144.427
62.80000 141.921
62.84000 141.450
62.88000 143.038
62.92000 154.245
62.96000 145.245
63.00000 159.343
63.04000 147.256
63.08000 149.020
63.12000 151.960
63.16000 150.625
63.20000 157.516
63.24000 148.404
63.28000 148.800
63.32000 148.400
63.36000 146.178
63.40000 157.052
63.44000 149.715
63.48000 143.120
63.52000 149.449
63.56000 161.571
63.60000 160.110
63.64000 148.890
63.68000 152.146
63.72000 156.047
63.76000 149.744
63.80000 156.730
63.84000 157.291
63.88000 161.914
63.92000 156.329
63.96000 140.206
64.00000 150.346
64.04000 161.211
64.08000 156.188
64.12000 152.447
64.16000 158.286
64.20000 162.829
64.24000 160.482
64.28000 162.587
64.32000 176.327
64.36000 172.729
64.40000 165.183
64.44000 177.298
64.48000 157.025
64.52000 168.258
64.56000 182.933
64.60000 175.491
64.64000 182.042
64.68000 187.505
64.72000 172.355
64.76000 177.933
64.80000 185.758
64.84000 181.816
64.88000 191.959
64.92000 199.680
64.96000 193.570
65.00000 185.210
65.04000 198.177
65.08000 212.072
65.12000 209.037
65.16000 223.193
65.20000 225.154
65.24000 244.248
65.28000 248.204
65.32000 271.575
65.36000 282.421
65.40000 324.056
65.44000 353.055
65.48000 370.509
65.52000 391.795
65.56000 426.374
65.60000 461.303
65.64000 521.553
65.68000 629.655
65.72000 849.453
65.76000 1122.583
65.80000 1335.904
65.84000 1469.146
65.88000 1499.953
65.92000 1413.159
65.96000 1229.480
66.00000 850.367
66.04000 605.643
66.08000 462.698
66.12000 400.985
66.16000 370.669
66.20000 358.081
66.24000 388.380
66.28000 410.461
66.32000 491.779
66.36000 523.620
66.40000 555.057
66.44000 550.878
66.48000 557.430
66.52000 478.308
66.56000 432.144
66.60000 380.495
66.64000 370.426
66.68000 354.183
66.72000 366.308
66.76000 357.873
66.80000 356.227
66.84000 374.118
66.88000 374.401
66.92000 370.902
66.96000 390.090
67.00000 371.306
67.04000 391.577
67.08000 368.230
67.12000 410.098
67.16000 414.955
67.20000 433.833
67.24000 423.913
67.28000 419.213
67.32000 436.624
67.36000 452.962
67.40000 449.548
67.44000 446.031
67.48000 472.846
67.52000 486.408
67.56000 497.152
67.60000 501.194
67.64000 502.976
67.68000 526.664
67.72000 527.555
67.76000 526.538
67.80000 554.621
67.84000 578.451
67.88000 582.096
67.92000 588.331
67.96000 588.898
68.00000 615.160
68.04000 616.725
68.08000 617.451
68.12000 649.346
68.16000 658.785
68.20000 687.048
68.24000 725.635
68.28000 740.558
68.32000 742.055
68.36000 769.196
68.40000 798.619
68.44000 863.469
68.48000 919.444
68.52000 985.432
68.56000 1066.178
68.60000 1198.633
68.64000 1443.850
68.68000 1751.015
68.72000 2063.557
68.76000 2496.277
68.80000 2840.734
68.84000 3635.253
68.88000 5096.809
68.92000 9486.171
68.96000 21333.328
69.00000 44875.813
69.04000 69116.469
69.08000 81890.758
69.12000 85463.039
69.16000 88814.602
69.20000 87138.203
69.24000 72503.484
69.28000 56738.156
69.32000 46722.434
69.36000 41270.348
69.40000 33259.574
69.44000 20282.746
69.48000 9754.452
69.52000 4569.572
69.56000 2728.226
69.60000 1946.937
69.64000 1636.865
69.68000 1404.164
69.72000 1228.423
69.76000 1120.850
69.80000 1026.360
69.84000 991.291
69.88000 915.307
69.92000 867.659
69.96000 822.900
70.00000 771.846