File: XRD/22-09-2025 Dep 2/XY Data/BTO_Mapping_Theta2Theta_22-09-2025_001_11_45-048_21-694.xy
20.00000 1194.571
20.04000 1184.870
20.08000 1202.172
20.12000 1183.440
20.16000 1159.834
20.20000 1157.302
20.24000 1203.969
20.28000 1179.800
20.32000 1160.230
20.36000 1144.788
20.40000 1158.619
20.44000 1153.776
20.48000 1148.061
20.52000 1154.380
20.56000 1132.014
20.60000 1133.608
20.64000 1129.101
20.68000 1138.126
20.72000 1139.099
20.76000 1156.081
20.80000 1136.080
20.84000 1155.118
20.88000 1137.996
20.92000 1117.559
20.96000 1146.972
21.00000 1141.168
21.04000 1105.297
21.08000 1085.489
21.12000 1083.955
21.16000 1103.782
21.20000 1101.477
21.24000 1105.620
21.28000 1086.044
21.32000 1088.820
21.36000 1098.947
21.40000 1076.241
21.44000 1076.225
21.48000 1082.188
21.52000 1047.061
21.56000 1066.885
21.60000 1068.510
21.64000 1087.116
21.68000 1052.095
21.72000 1054.474
21.76000 1079.702
21.80000 1039.261
21.84000 1038.240
21.88000 1070.935
21.92000 1024.161
21.96000 1068.547
22.00000 1008.349
22.04000 1013.962
22.08000 1030.918
22.12000 1031.936
22.16000 1059.841
22.20000 1026.597
22.24000 1018.128
22.28000 1000.070
22.32000 1015.026
22.36000 1019.333
22.40000 1015.719
22.44000 1005.339
22.48000 1016.874
22.52000 995.693
22.56000 992.640
22.60000 1018.593
22.64000 984.833
22.68000 1000.935
22.72000 999.394
22.76000 987.873
22.80000 1006.037
22.84000 973.659
22.88000 983.195
22.92000 994.373
22.96000 976.137
23.00000 998.648
23.04000 975.999
23.08000 968.650
23.12000 981.938
23.16000 976.667
23.20000 964.036
23.24000 965.518
23.28000 949.763
23.32000 945.717
23.36000 967.246
23.40000 938.713
23.44000 932.473
23.48000 926.746
23.52000 920.035
23.56000 982.323
23.60000 963.545
23.64000 954.408
23.68000 933.250
23.72000 934.545
23.76000 926.009
23.80000 917.409
23.84000 912.265
23.88000 939.441
23.92000 913.938
23.96000 931.315
24.00000 906.338
24.04000 910.617
24.08000 921.143
24.12000 921.479
24.16000 908.465
24.20000 904.727
24.24000 905.700
24.28000 906.882
24.32000 900.717
24.36000 897.419
24.40000 876.091
24.44000 889.598
24.48000 899.957
24.52000 884.824
24.56000 917.394
24.60000 897.055
24.64000 878.293
24.68000 863.192
24.72000 858.523
24.76000 871.709
24.80000 881.743
24.84000 882.273
24.88000 886.395
24.92000 878.712
24.96000 875.252
25.00000 874.479
25.04000 899.210
25.08000 874.418
25.12000 849.462
25.16000 860.019
25.20000 844.236
25.24000 854.440
25.28000 865.947
25.32000 837.929
25.36000 847.735
25.40000 842.997
25.44000 852.283
25.48000 831.742
25.52000 833.191
25.56000 815.760
25.60000 834.259
25.64000 853.746
25.68000 813.392
25.72000 810.789
25.76000 838.683
25.80000 815.401
25.84000 833.539
25.88000 826.285
25.92000 795.605
25.96000 813.556
26.00000 828.458
26.04000 801.203
26.08000 803.018
26.12000 784.639
26.16000 800.979
26.20000 794.105
26.24000 812.297
26.28000 791.562
26.32000 793.764
26.36000 784.072
26.40000 791.046
26.44000 778.934
26.48000 791.405
26.52000 777.422
26.56000 772.705
26.60000 810.316
26.64000 778.638
26.68000 775.187
26.72000 770.539
26.76000 793.560
26.80000 771.646
26.84000 756.822
26.88000 758.651
26.92000 749.464
26.96000 777.022
27.00000 758.077
27.04000 775.157
27.08000 758.125
27.12000 772.581
27.16000 762.587
27.20000 711.663
27.24000 735.539
27.28000 747.109
27.32000 743.631
27.36000 729.791
27.40000 714.130
27.44000 744.449
27.48000 747.713
27.52000 714.919
27.56000 707.602
27.60000 736.116
27.64000 748.865
27.68000 737.450
27.72000 725.934
27.76000 740.746
27.80000 734.928
27.84000 738.220
27.88000 713.385
27.92000 706.052
27.96000 726.866
28.00000 701.816
28.04000 717.221
28.08000 724.757
28.12000 704.671
28.16000 713.317
28.20000 710.504
28.24000 710.811
28.28000 721.088
28.32000 705.531
28.36000 698.037
28.40000 694.587
28.44000 706.917
28.48000 678.970
28.52000 703.491
28.56000 691.497
28.60000 706.619
28.64000 710.976
28.68000 696.875
28.72000 703.252
28.76000 696.179
28.80000 692.057
28.84000 665.544
28.88000 677.278
28.92000 688.038
28.96000 694.765
29.00000 687.677
29.04000 672.702
29.08000 665.859
29.12000 688.703
29.16000 678.862
29.20000 661.985
29.24000 683.841
29.28000 663.685
29.32000 673.347
29.36000 677.805
29.40000 663.937
29.44000 674.008
29.48000 677.734
29.52000 651.834
29.56000 655.843
29.60000 641.739
29.64000 644.714
29.68000 650.946
29.72000 650.144
29.76000 655.587
29.80000 671.312
29.84000 644.014
29.88000 656.034
29.92000 655.061
29.96000 641.291
30.00000 626.720
30.04000 632.799
30.08000 641.389
30.12000 628.610
30.16000 651.262
30.20000 647.507
30.24000 620.616
30.28000 621.983
30.32000 628.006
30.36000 641.414
30.40000 620.008
30.44000 626.618
30.48000 616.917
30.52000 617.312
30.56000 628.119
30.60000 629.128
30.64000 624.833
30.68000 619.462
30.72000 596.870
30.76000 619.382
30.80000 606.667
30.84000 601.916
30.88000 606.689
30.92000 609.634
30.96000 605.120
31.00000 619.860
31.04000 602.866
31.08000 586.951
31.12000 584.613
31.16000 605.697
31.20000 591.707
31.24000 612.521
31.28000 590.622
31.32000 597.091
31.36000 605.677
31.40000 584.151
31.44000 581.960
31.48000 575.635
31.52000 607.048
31.56000 596.364
31.60000 600.177
31.64000 580.198
31.68000 575.749
31.72000 562.333
31.76000 591.764
31.80000 581.243
31.84000 564.651
31.88000 576.630
31.92000 565.868
31.96000 573.774
32.00000 562.775
32.04000 551.389
32.08000 567.206
32.12000 570.064
32.16000 569.194
32.20000 569.949
32.24000 571.097
32.28000 569.700
32.32000 547.242
32.36000 586.124
32.40000 585.360
32.44000 553.487
32.48000 558.857
32.52000 553.572
32.56000 548.744
32.60000 557.940
32.64000 556.033
32.68000 555.354
32.72000 551.100
32.76000 534.555
32.80000 566.098
32.84000 561.259
32.88000 571.201
32.92000 551.328
32.96000 568.641
33.00000 546.327
33.04000 549.219
33.08000 556.538
33.12000 546.544
33.16000 525.142
33.20000 528.666
33.24000 539.414
33.28000 524.340
33.32000 538.354
33.36000 524.692
33.40000 535.078
33.44000 537.133
33.48000 522.230
33.52000 505.237
33.56000 507.937
33.60000 534.272
33.64000 539.244
33.68000 510.090
33.72000 516.091
33.76000 519.094
33.80000 518.520
33.84000 513.284
33.88000 504.441
33.92000 508.266
33.96000 513.066
34.00000 508.770
34.04000 510.886
34.08000 523.192
34.12000 510.256
34.16000 503.708
34.20000 517.804
34.24000 513.098
34.28000 507.606
34.32000 504.353
34.36000 503.811
34.40000 500.257
34.44000 493.329
34.48000 490.357
34.52000 488.076
34.56000 499.614
34.60000 510.859
34.64000 485.965
34.68000 497.272
34.72000 498.156
34.76000 485.626
34.80000 524.367
34.84000 471.667
34.88000 483.535
34.92000 502.495
34.96000 502.341
35.00000 483.088
35.04000 463.617
35.08000 487.341
35.12000 489.821
35.16000 475.429
35.20000 474.281
35.24000 478.532
35.28000 473.998
35.32000 487.957
35.36000 479.456
35.40000 475.560
35.44000 481.331
35.48000 466.334
35.52000 457.743
35.56000 474.805
35.60000 461.761
35.64000 478.117
35.68000 458.534
35.72000 476.394
35.76000 495.734
35.80000 467.637
35.84000 457.818
35.88000 444.734
35.92000 461.395
35.96000 478.605
36.00000 453.555
36.04000 450.486
36.08000 451.917
36.12000 468.101
36.16000 437.318
36.20000 452.281
36.24000 462.817
36.28000 450.858
36.32000 464.789
36.36000 468.930
36.40000 455.362
36.44000 452.569
36.48000 455.956
36.52000 453.473
36.56000 456.239
36.60000 438.797
36.64000 442.397
36.68000 438.629
36.72000 449.909
36.76000 452.035
36.80000 440.746
36.84000 448.939
36.88000 441.612
36.92000 462.265
36.96000 446.738
37.00000 448.644
37.04000 436.381
37.08000 423.811
37.12000 422.425
37.16000 429.983
37.20000 430.061
37.24000 438.553
37.28000 419.666
37.32000 428.701
37.36000 422.891
37.40000 420.493
37.44000 426.587
37.48000 412.049
37.52000 409.814
37.56000 441.826
37.60000 411.537
37.64000 413.951
37.68000 423.251
37.72000 408.338
37.76000 418.545
37.80000 421.204
37.84000 425.268
37.88000 406.784
37.92000 423.387
37.96000 420.998
38.00000 408.593
38.04000 432.542
38.08000 405.830
38.12000 407.304
38.16000 405.840
38.20000 412.264
38.24000 420.672
38.28000 393.949
38.32000 411.806
38.36000 398.863
38.40000 408.220
38.44000 416.625
38.48000 411.589
38.52000 408.207
38.56000 410.616
38.60000 411.912
38.64000 410.246
38.68000 395.497
38.72000 411.481
38.76000 391.656
38.80000 390.108
38.84000 402.101
38.88000 401.357
38.92000 400.674
38.96000 399.102
39.00000 398.152
39.04000 378.271
39.08000 390.259
39.12000 395.733
39.16000 393.489
39.20000 390.292
39.24000 408.893
39.28000 396.456
39.32000 379.594
39.36000 390.821
39.40000 391.086
39.44000 386.809
39.48000 400.800
39.52000 384.077
39.56000 387.604
39.60000 378.772
39.64000 400.619
39.68000 394.095
39.72000 383.984
39.76000 363.513
39.80000 384.083
39.84000 363.203
39.88000 378.755
39.92000 373.105
39.96000 379.899
40.00000 371.037
40.04000 370.809
40.08000 379.875
40.12000 376.448
40.16000 360.071
40.20000 377.924
40.24000 381.606
40.28000 379.396
40.32000 372.053
40.36000 365.058
40.40000 378.812
40.44000 384.268
40.48000 375.608
40.52000 369.384
40.56000 388.252
40.60000 366.385
40.64000 377.301
40.68000 357.807
40.72000 380.459
40.76000 373.126
40.80000 340.330
40.84000 370.312
40.88000 376.963
40.92000 362.868
40.96000 359.745
41.00000 365.610
41.04000 372.576
41.08000 362.806
41.12000 364.950
41.16000 364.551
41.20000 362.231
41.24000 359.893
41.28000 353.602
41.32000 380.072
41.36000 355.613
41.40000 367.603
41.44000 353.498
41.48000 349.372
41.52000 350.227
41.56000 353.195
41.60000 357.247
41.64000 357.961
41.68000 348.250
41.72000 351.941
41.76000 351.599
41.80000 347.960
41.84000 342.673
41.88000 330.922
41.92000 333.859
41.96000 347.561
42.00000 355.967
42.04000 353.340
42.08000 345.957
42.12000 345.901
42.16000 334.253
42.20000 341.051
42.24000 355.674
42.28000 335.858
42.32000 342.518
42.36000 317.639
42.40000 337.831
42.44000 325.752
42.48000 336.319
42.52000 328.937
42.56000 338.323
42.60000 331.468
42.64000 327.425
42.68000 329.023
42.72000 319.874
42.76000 326.830
42.80000 335.249
42.84000 350.589
42.88000 346.903
42.92000 321.370
42.96000 329.076
43.00000 304.331
43.04000 336.912
43.08000 328.185
43.12000 334.857
43.16000 324.504
43.20000 318.576
43.24000 324.406
43.28000 321.448
43.32000 309.886
43.36000 319.198
43.40000 331.268
43.44000 324.694
43.48000 336.095
43.52000 317.180
43.56000 324.963
43.60000 312.989
43.64000 328.808
43.68000 322.350
43.72000 319.691
43.76000 313.661
43.80000 331.973
43.84000 317.847
43.88000 317.701
43.92000 324.699
43.96000 302.437
44.00000 315.836
44.04000 314.825
44.08000 318.521
44.12000 291.512
44.16000 306.815
44.20000 298.230
44.24000 310.674
44.28000 316.729
44.32000 320.031
44.36000 286.215
44.40000 295.002
44.44000 304.735
44.48000 309.126
44.52000 292.426
44.56000 316.004
44.60000 296.556
44.64000 299.124
44.68000 295.434
44.72000 298.725
44.76000 294.537
44.80000 310.514
44.84000 296.112
44.88000 296.619
44.92000 298.857
44.96000 298.929
45.00000 294.015
45.04000 310.635
45.08000 297.249
45.12000 293.624
45.16000 294.486
45.20000 279.501
45.24000 289.809
45.28000 290.958
45.32000 293.555
45.36000 310.102
45.40000 304.538
45.44000 285.656
45.48000 299.967
45.52000 289.830
45.56000 300.485
45.60000 291.984
45.64000 298.549
45.68000 294.816
45.72000 300.096
45.76000 287.200
45.80000 303.295
45.84000 290.369
45.88000 281.035
45.92000 291.977
45.96000 303.907
46.00000 302.532
46.04000 293.436
46.08000 273.856
46.12000 280.156
46.16000 284.390
46.20000 282.471
46.24000 290.374
46.28000 282.221
46.32000 287.198
46.36000 289.412
46.40000 277.496
46.44000 289.368
46.48000 280.253
46.52000 290.976
46.56000 280.952
46.60000 277.091
46.64000 285.429
46.68000 272.316
46.72000 267.844
46.76000 288.542
46.80000 286.258
46.84000 277.533
46.88000 275.950
46.92000 268.306
46.96000 292.061
47.00000 288.783
47.04000 275.121
47.08000 282.088
47.12000 277.640
47.16000 269.184
47.20000 271.620
47.24000 279.376
47.28000 274.257
47.32000 270.000
47.36000 257.176
47.40000 279.061
47.44000 279.471
47.48000 293.358
47.52000 271.297
47.56000 257.621
47.60000 272.152
47.64000 263.661
47.68000 255.707
47.72000 268.682
47.76000 279.588
47.80000 251.257
47.84000 272.644
47.88000 268.233
47.92000 265.535
47.96000 263.643
48.00000 289.591
48.04000 270.907
48.08000 248.115
48.12000 265.340
48.16000 266.233
48.20000 267.261
48.24000 254.200
48.28000 275.142
48.32000 264.475
48.36000 257.848
48.40000 250.801
48.44000 264.692
48.48000 268.011
48.52000 261.673
48.56000 252.153
48.60000 257.553
48.64000 261.344
48.68000 252.503
48.72000 255.926
48.76000 259.709
48.80000 269.390
48.84000 254.222
48.88000 247.958
48.92000 241.422
48.96000 267.015
49.00000 257.966
49.04000 265.675
49.08000 253.995
49.12000 237.837
49.16000 260.293
49.20000 259.283
49.24000 248.342
49.28000 255.905
49.32000 254.016
49.36000 253.679
49.40000 255.231
49.44000 252.660
49.48000 244.785
49.52000 256.374
49.56000 239.203
49.60000 254.193
49.64000 246.393
49.68000 247.812
49.72000 248.167
49.76000 256.394
49.80000 251.990
49.84000 240.826
49.88000 248.658
49.92000 254.337
49.96000 257.528
50.00000 247.002
50.04000 244.342
50.08000 254.891
50.12000 253.713
50.16000 251.199
50.20000 254.062
50.24000 251.433
50.28000 236.911
50.32000 244.126
50.36000 238.963
50.40000 239.453
50.44000 247.311
50.48000 230.334
50.52000 238.114
50.56000 246.589
50.60000 239.704
50.64000 233.405
50.68000 245.726
50.72000 249.114
50.76000 251.312
50.80000 250.964
50.84000 239.224
50.88000 248.554
50.92000 253.012
50.96000 254.452
51.00000 255.282
51.04000 245.778
51.08000 247.325
51.12000 247.045
51.16000 233.734
51.20000 239.288
51.24000 233.010
51.28000 241.063
51.32000 232.652
51.36000 248.835
51.40000 235.637
51.44000 251.027
51.48000 235.131
51.52000 238.343
51.56000 238.416
51.60000 232.024
51.64000 259.293
51.68000 248.415
51.72000 254.430
51.76000 248.783
51.80000 245.463
51.84000 238.842
51.88000 244.985
51.92000 241.223
51.96000 238.939
52.00000 238.645
52.04000 245.159
52.08000 238.304
52.12000 234.971
52.16000 239.044
52.20000 243.345
52.24000 247.162
52.28000 241.640
52.32000 248.689
52.36000 252.575
52.40000 239.990
52.44000 245.463
52.48000 251.407
52.52000 237.985
52.56000 237.806
52.60000 254.729
52.64000 243.815
52.68000 250.529
52.72000 239.429
52.76000 247.135
52.80000 241.264
52.84000 248.444
52.88000 249.103
52.92000 252.091
52.96000 239.967
53.00000 244.978
53.04000 237.733
53.08000 238.730
53.12000 241.385
53.16000 238.860
53.20000 243.212
53.24000 241.329
53.28000 245.032
53.32000 254.892
53.36000 253.038
53.40000 251.236
53.44000 260.352
53.48000 262.420
53.52000 257.113
53.56000 245.526
53.60000 245.547
53.64000 255.573
53.68000 253.986
53.72000 238.774
53.76000 239.847
53.80000 255.585
53.84000 233.879
53.88000 242.995
53.92000 247.613
53.96000 232.611
54.00000 230.665
54.04000 264.947
54.08000 244.189
54.12000 252.317
54.16000 242.780
54.20000 252.955
54.24000 257.393
54.28000 249.225
54.32000 256.294
54.36000 256.162
54.40000 256.551
54.44000 247.434
54.48000 244.494
54.52000 262.522
54.56000 264.856
54.60000 265.242
54.64000 250.322
54.68000 236.622
54.72000 259.173
54.76000 270.550
54.80000 256.878
54.84000 245.014
54.88000 256.703
54.92000 260.123
54.96000 269.615
55.00000 262.210
55.04000 267.710
55.08000 268.530
55.12000 269.907
55.16000 265.063
55.20000 270.643
55.24000 268.071
55.28000 267.138
55.32000 262.269
55.36000 270.555
55.40000 275.841
55.44000 269.325
55.48000 270.607
55.52000 279.345
55.56000 258.805
55.60000 273.734
55.64000 287.649
55.68000 264.209
55.72000 270.092
55.76000 275.788
55.80000 256.856
55.84000 267.624
55.88000 269.145
55.92000 276.302
55.96000 275.192
56.00000 288.049
56.04000 284.790
56.08000 271.412
56.12000 275.283
56.16000 263.433
56.20000 275.943
56.24000 299.707
56.28000 278.195
56.32000 275.919
56.36000 278.460
56.40000 285.714
56.44000 292.238
56.48000 291.036
56.52000 264.568
56.56000 285.540
56.60000 286.118
56.64000 297.873
56.68000 281.874
56.72000 296.907
56.76000 299.836
56.80000 295.648
56.84000 300.918
56.88000 303.874
56.92000 290.621
56.96000 290.038
57.00000 293.652
57.04000 306.730
57.08000 331.388
57.12000 315.617
57.16000 299.814
57.20000 297.786
57.24000 299.189
57.28000 318.905
57.32000 315.761
57.36000 298.966
57.40000 297.092
57.44000 312.374
57.48000 306.960
57.52000 329.923
57.56000 329.900
57.60000 317.148
57.64000 322.593
57.68000 321.385
57.72000 319.292
57.76000 331.560
57.80000 322.231
57.84000 315.145
57.88000 314.509
57.92000 327.540
57.96000 320.857
58.00000 308.752
58.04000 329.772
58.08000 316.664
58.12000 323.619
58.16000 328.024
58.20000 338.727
58.24000 330.975
58.28000 318.318
58.32000 314.838
58.36000 332.109
58.40000 325.192
58.44000 312.880
58.48000 340.490
58.52000 332.146
58.56000 337.458
58.60000 328.644
58.64000 336.777
58.68000 337.624
58.72000 329.524
58.76000 345.975
58.80000 331.276
58.84000 323.975
58.88000 343.398
58.92000 350.096
58.96000 341.881
59.00000 341.752
59.04000 347.756
59.08000 358.089
59.12000 349.929
59.16000 347.274
59.20000 357.752
59.24000 363.342
59.28000 374.052
59.32000 364.948
59.36000 358.524
59.40000 368.919
59.44000 355.351
59.48000 360.424
59.52000 375.675
59.56000 367.453
59.60000 371.763
59.64000 367.997
59.68000 362.590
59.72000 387.916
59.76000 393.125
59.80000 362.797
59.84000 380.439
59.88000 370.796
59.92000 387.357
59.96000 395.971
60.00000 386.850
60.04000 395.830
60.08000 386.905
60.12000 391.894
60.16000 403.615
60.20000 404.201
60.24000 397.606
60.28000 395.486
60.32000 397.929
60.36000 406.068
60.40000 407.863
60.44000 413.634
60.48000 422.345
60.52000 401.933
60.56000 389.423
60.60000 404.983
60.64000 408.605
60.68000 405.896
60.72000 382.850
60.76000 422.142
60.80000 407.832
60.84000 428.526
60.88000 413.326
60.92000 408.717
60.96000 410.326
61.00000 422.066
61.04000 419.799
61.08000 432.052
61.12000 437.062
61.16000 439.788
61.20000 435.329
61.24000 437.715
61.28000 425.522
61.32000 432.297
61.36000 436.583
61.40000 441.980
61.44000 450.180
61.48000 450.477
61.52000 457.079
61.56000 476.858
61.60000 504.936
61.64000 511.598
61.68000 512.919
61.72000 496.606
61.76000 496.848
61.80000 464.030
61.84000 457.904
61.88000 434.058
61.92000 470.444
61.96000 467.665
62.00000 453.632
62.04000 464.393
62.08000 489.852
62.12000 481.735
62.16000 461.226
62.20000 478.016
62.24000 467.708
62.28000 472.311
62.32000 481.493
62.36000 479.465
62.40000 497.604
62.44000 476.842
62.48000 480.335
62.52000 497.435
62.56000 477.498
62.60000 470.441
62.64000 488.474
62.68000 495.575
62.72000 487.693
62.76000 473.964
62.80000 497.645
62.84000 497.766
62.88000 498.019
62.92000 485.276
62.96000 496.050
63.00000 505.256
63.04000 525.325
63.08000 514.862
63.12000 507.792
63.16000 500.968
63.20000 515.508
63.24000 531.106
63.28000 504.254
63.32000 510.561
63.36000 531.566
63.40000 548.465
63.44000 507.427
63.48000 531.368
63.52000 512.163
63.56000 540.670
63.60000 536.770
63.64000 547.307
63.68000 534.361
63.72000 543.358
63.76000 554.943
63.80000 541.849
63.84000 537.279
63.88000 542.753
63.92000 544.739
63.96000 555.482
64.00000 566.798
64.04000 561.129
64.08000 549.456
64.12000 579.852
64.16000 582.433
64.20000 572.258
64.24000 605.327
64.28000 602.544
64.32000 619.223
64.36000 643.538
64.40000 646.866
64.44000 649.276
64.48000 652.623
64.52000 641.000
64.56000 665.562
64.60000 648.082
64.64000 650.008
64.68000 647.779
64.72000 636.210
64.76000 633.417
64.80000 626.371
64.84000 628.875
64.88000 631.706
64.92000 595.941
64.96000 615.084
65.00000 629.009
65.04000 627.107
65.08000 608.977
65.12000 631.912
65.16000 612.894
65.20000 630.002
65.24000 613.602
65.28000 615.670
65.32000 614.452
65.36000 617.820
65.40000 646.820
65.44000 637.063
65.48000 641.349
65.52000 631.968
65.56000 660.425
65.60000 641.645
65.64000 657.700
65.68000 724.379
65.72000 837.819
65.76000 927.514
65.80000 954.735
65.84000 964.306
65.88000 990.331
65.92000 945.877
65.96000 814.732
66.00000 738.768
66.04000 691.587
66.08000 658.991
66.12000 678.941
66.16000 684.630
66.20000 685.066
66.24000 716.761
66.28000 735.027
66.32000 758.281
66.36000 753.438
66.40000 736.661
66.44000 775.800
66.48000 782.741
66.52000 701.209
66.56000 697.448
66.60000 692.040
66.64000 710.790
66.68000 730.572
66.72000 711.882
66.76000 701.209
66.80000 754.313
66.84000 740.807
66.88000 756.072
66.92000 737.761
66.96000 733.856
67.00000 751.055
67.04000 743.015
67.08000 762.583
67.12000 788.258
67.16000 760.148
67.20000 763.709
67.24000 755.177
67.28000 789.935
67.32000 798.496
67.36000 769.122
67.40000 804.631
67.44000 781.483
67.48000 807.006
67.52000 825.278
67.56000 813.687
67.60000 826.497
67.64000 833.983
67.68000 826.063
67.72000 832.393
67.76000 849.396
67.80000 850.418
67.84000 829.406
67.88000 860.698
67.92000 842.347
67.96000 849.596
68.00000 856.018
68.04000 873.661
68.08000 896.261
68.12000 892.605
68.16000 919.824
68.20000 912.987
68.24000 922.784
68.28000 921.536
68.32000 943.069
68.36000 955.323
68.40000 970.231
68.44000 963.864
68.48000 1009.744
68.52000 1019.458
68.56000 1076.685
68.60000 1128.993
68.64000 1204.908
68.68000 1356.219
68.72000 1432.781
68.76000 1537.911
68.80000 1612.198
68.84000 1790.494
68.88000 2136.300
68.92000 3741.238
68.96000 10255.787
69.00000 22686.951
69.04000 28010.199
69.08000 27088.752
69.12000 26347.244
69.16000 27615.988
69.20000 25079.305
69.24000 17726.436
69.28000 14605.933
69.32000 13496.132
69.36000 11891.667
69.40000 7386.398
69.44000 3036.098
69.48000 1772.072
69.52000 1469.716
69.56000 1367.058
69.60000 1259.267
69.64000 1190.428
69.68000 1148.429
69.72000 1086.774
69.76000 1078.549
69.80000 1049.451
69.84000 1058.108
69.88000 1010.917
69.92000 1022.079
69.96000 1025.475
70.00000 1021.707