File: XRD/22-09-2025 Dep 2/XY Data/BTO_Mapping_Theta2Theta_22-09-2025_001_57_2-225_-9-749.xy
20.00000 551.787
20.04000 576.573
20.08000 576.541
20.12000 569.644
20.16000 567.673
20.20000 564.255
20.24000 580.913
20.28000 559.354
20.32000 590.721
20.36000 561.743
20.40000 578.213
20.44000 572.092
20.48000 569.545
20.52000 572.060
20.56000 577.195
20.60000 558.826
20.64000 547.291
20.68000 560.353
20.72000 556.527
20.76000 551.750
20.80000 559.740
20.84000 559.125
20.88000 567.157
20.92000 560.347
20.96000 568.333
21.00000 554.000
21.04000 565.307
21.08000 560.566
21.12000 540.809
21.16000 565.539
21.20000 556.997
21.24000 557.191
21.28000 573.203
21.32000 583.948
21.36000 562.748
21.40000 558.599
21.44000 571.106
21.48000 572.043
21.52000 590.292
21.56000 584.805
21.60000 555.938
21.64000 563.158
21.68000 592.207
21.72000 597.034
21.76000 613.379
21.80000 627.523
21.84000 658.354
21.88000 674.915
21.92000 748.916
21.96000 768.087
22.00000 792.261
22.04000 832.198
22.08000 816.848
22.12000 825.397
22.16000 795.945
22.20000 768.986
22.24000 724.625
22.28000 686.078
22.32000 647.958
22.36000 629.696
22.40000 603.594
22.44000 593.205
22.48000 583.524
22.52000 558.177
22.56000 564.061
22.60000 538.670
22.64000 531.164
22.68000 542.187
22.72000 556.790
22.76000 518.793
22.80000 514.020
22.84000 522.382
22.88000 515.412
22.92000 532.704
22.96000 518.890
23.00000 544.411
23.04000 499.675
23.08000 521.915
23.12000 528.131
23.16000 529.156
23.20000 509.313
23.24000 527.534
23.28000 529.628
23.32000 498.732
23.36000 493.239
23.40000 501.986
23.44000 498.533
23.48000 496.227
23.52000 509.499
23.56000 514.607
23.60000 500.413
23.64000 494.393
23.68000 509.228
23.72000 506.890
23.76000 504.844
23.80000 508.004
23.84000 509.905
23.88000 522.284
23.92000 504.907
23.96000 501.959
24.00000 505.404
24.04000 513.965
24.08000 513.878
24.12000 490.334
24.16000 502.632
24.20000 516.024
24.24000 479.938
24.28000 493.856
24.32000 495.725
24.36000 495.174
24.40000 480.405
24.44000 489.184
24.48000 475.656
24.52000 482.569
24.56000 483.346
24.60000 500.741
24.64000 489.086
24.68000 480.678
24.72000 503.582
24.76000 502.349
24.80000 481.615
24.84000 489.656
24.88000 490.703
24.92000 480.602
24.96000 477.815
25.00000 488.563
25.04000 473.671
25.08000 490.557
25.12000 490.724
25.16000 479.766
25.20000 476.606
25.24000 482.122
25.28000 483.362
25.32000 482.300
25.36000 463.211
25.40000 476.168
25.44000 478.438
25.48000 472.333
25.52000 475.215
25.56000 462.320
25.60000 456.323
25.64000 468.011
25.68000 466.891
25.72000 471.504
25.76000 480.001
25.80000 453.986
25.84000 474.434
25.88000 478.654
25.92000 474.988
25.96000 467.503
26.00000 465.881
26.04000 457.694
26.08000 468.199
26.12000 463.333
26.16000 450.863
26.20000 444.850
26.24000 463.496
26.28000 469.216
26.32000 464.734
26.36000 473.596
26.40000 449.610
26.44000 446.700
26.48000 450.854
26.52000 463.881
26.56000 475.182
26.60000 438.848
26.64000 448.577
26.68000 464.172
26.72000 458.897
26.76000 451.374
26.80000 459.351
26.84000 442.482
26.88000 465.783
26.92000 441.132
26.96000 445.259
27.00000 451.406
27.04000 444.386
27.08000 449.809
27.12000 438.909
27.16000 441.080
27.20000 425.052
27.24000 435.884
27.28000 442.055
27.32000 443.509
27.36000 455.905
27.40000 437.313
27.44000 452.671
27.48000 458.614
27.52000 443.598
27.56000 452.671
27.60000 425.488
27.64000 432.804
27.68000 440.583
27.72000 435.885
27.76000 423.795
27.80000 437.491
27.84000 465.933
27.88000 435.023
27.92000 429.798
27.96000 441.038
28.00000 445.038
28.04000 430.947
28.08000 426.923
28.12000 455.741
28.16000 420.669
28.20000 439.283
28.24000 421.451
28.28000 440.596
28.32000 448.335
28.36000 426.828
28.40000 430.087
28.44000 442.735
28.48000 443.725
28.52000 436.634
28.56000 420.698
28.60000 417.891
28.64000 421.441
28.68000 435.519
28.72000 425.111
28.76000 440.018
28.80000 427.904
28.84000 415.628
28.88000 419.996
28.92000 425.385
28.96000 419.645
29.00000 408.935
29.04000 418.316
29.08000 422.323
29.12000 427.189
29.16000 423.527
29.20000 407.080
29.24000 426.715
29.28000 416.896
29.32000 439.864
29.36000 425.107
29.40000 436.432
29.44000 402.886
29.48000 412.436
29.52000 409.297
29.56000 411.456
29.60000 407.411
29.64000 409.063
29.68000 407.113
29.72000 410.992
29.76000 413.784
29.80000 415.377
29.84000 457.944
29.88000 445.963
29.92000 464.909
29.96000 453.639
30.00000 439.029
30.04000 460.153
30.08000 451.353
30.12000 456.541
30.16000 448.947
30.20000 444.780
30.24000 436.405
30.28000 438.182
30.32000 431.191
30.36000 440.110
30.40000 439.600
30.44000 447.469
30.48000 444.762
30.52000 447.746
30.56000 456.008
30.60000 467.054
30.64000 456.815
30.68000 473.759
30.72000 473.785
30.76000 479.295
30.80000 499.541
30.84000 499.835
30.88000 534.791
30.92000 551.856
30.96000 567.693
31.00000 633.184
31.04000 712.408
31.08000 831.717
31.12000 998.256
31.16000 1244.556
31.20000 1621.603
31.24000 2036.221
31.28000 2541.999
31.32000 2970.249
31.36000 3335.470
31.40000 3471.820
31.44000 3366.086
31.48000 3088.770
31.52000 2662.074
31.56000 2157.042
31.60000 1771.152
31.64000 1368.349
31.68000 1082.077
31.72000 879.269
31.76000 763.348
31.80000 667.553
31.84000 616.096
31.88000 548.858
31.92000 506.764
31.96000 479.889
32.00000 456.017
32.04000 459.910
32.08000 445.985
32.12000 450.433
32.16000 439.061
32.20000 438.381
32.24000 426.535
32.28000 415.426
32.32000 417.352
32.36000 412.784
32.40000 400.587
32.44000 401.692
32.48000 407.994
32.52000 415.026
32.56000 406.414
32.60000 398.693
32.64000 399.333
32.68000 393.050
32.72000 394.299
32.76000 384.653
32.80000 400.714
32.84000 412.842
32.88000 434.207
32.92000 438.099
32.96000 432.775
33.00000 430.873
33.04000 415.056
33.08000 404.629
33.12000 377.937
33.16000 366.010
33.20000 366.764
33.24000 363.538
33.28000 347.683
33.32000 356.810
33.36000 367.629
33.40000 359.321
33.44000 353.279
33.48000 346.831
33.52000 348.197
33.56000 332.734
33.60000 340.180
33.64000 337.093
33.68000 330.902
33.72000 351.673
33.76000 348.877
33.80000 352.475
33.84000 348.289
33.88000 335.938
33.92000 340.492
33.96000 350.817
34.00000 324.492
34.04000 351.388
34.08000 352.562
34.12000 330.766
34.16000 349.074
34.20000 350.493
34.24000 337.777
34.28000 329.454
34.32000 331.201
34.36000 332.265
34.40000 335.907
34.44000 331.877
34.48000 339.840
34.52000 337.790
34.56000 320.177
34.60000 320.014
34.64000 344.112
34.68000 333.228
34.72000 321.649
34.76000 328.922
34.80000 327.758
34.84000 330.446
34.88000 326.064
34.92000 321.899
34.96000 330.932
35.00000 328.789
35.04000 325.757
35.08000 323.716
35.12000 321.781
35.16000 311.706
35.20000 327.849
35.24000 317.727
35.28000 322.315
35.32000 309.515
35.36000 322.842
35.40000 312.566
35.44000 316.167
35.48000 306.557
35.52000 304.439
35.56000 327.555
35.60000 312.103
35.64000 306.676
35.68000 306.315
35.72000 305.986
35.76000 309.390
35.80000 305.327
35.84000 317.490
35.88000 309.566
35.92000 297.018
35.96000 305.239
36.00000 307.746
36.04000 299.719
36.08000 302.547
36.12000 299.961
36.16000 312.538
36.20000 289.408
36.24000 304.486
36.28000 300.209
36.32000 298.754
36.36000 301.595
36.40000 293.778
36.44000 312.817
36.48000 311.716
36.52000 303.708
36.56000 305.646
36.60000 317.042
36.64000 285.341
36.68000 300.221
36.72000 296.244
36.76000 308.636
36.80000 308.003
36.84000 301.445
36.88000 307.364
36.92000 297.276
36.96000 303.424
37.00000 295.508
37.04000 318.940
37.08000 297.064
37.12000 308.704
37.16000 299.914
37.20000 298.444
37.24000 315.068
37.28000 296.503
37.32000 297.578
37.36000 306.497
37.40000 306.004
37.44000 292.818
37.48000 293.998
37.52000 291.806
37.56000 291.500
37.60000 295.772
37.64000 301.729
37.68000 297.722
37.72000 305.732
37.76000 291.206
37.80000 295.705
37.84000 287.785
37.88000 313.919
37.92000 296.141
37.96000 307.470
38.00000 319.048
38.04000 309.971
38.08000 291.937
38.12000 309.203
38.16000 315.784
38.20000 331.761
38.24000 327.937
38.28000 324.977
38.32000 348.430
38.36000 362.031
38.40000 386.936
38.44000 427.462
38.48000 475.796
38.52000 547.126
38.56000 676.101
38.60000 751.001
38.64000 868.139
38.68000 949.993
38.72000 1004.130
38.76000 1002.566
38.80000 929.585
38.84000 820.978
38.88000 708.888
38.92000 602.346
38.96000 507.961
39.00000 454.202
39.04000 410.515
39.08000 336.807
39.12000 345.049
39.16000 343.444
39.20000 332.301
39.24000 304.692
39.28000 290.946
39.32000 283.798
39.36000 294.181
39.40000 303.324
39.44000 281.444
39.48000 275.251
39.52000 272.816
39.56000 266.391
39.60000 262.217
39.64000 281.670
39.68000 285.797
39.72000 280.898
39.76000 264.660
39.80000 281.036
39.84000 282.950
39.88000 264.585
39.92000 258.965
39.96000 270.644
40.00000 280.620
40.04000 260.218
40.08000 267.347
40.12000 264.685
40.16000 270.321
40.20000 263.504
40.24000 263.182
40.28000 259.486
40.32000 261.050
40.36000 253.474
40.40000 259.929
40.44000 269.191
40.48000 251.089
40.52000 254.745
40.56000 274.226
40.60000 256.448
40.64000 264.078
40.68000 266.977
40.72000 254.878
40.76000 252.415
40.80000 262.631
40.84000 260.811
40.88000 268.786
40.92000 259.630
40.96000 266.146
41.00000 243.966
41.04000 252.642
41.08000 249.849
41.12000 270.043
41.16000 259.367
41.20000 245.302
41.24000 245.132
41.28000 235.965
41.32000 256.684
41.36000 247.282
41.40000 230.613
41.44000 247.198
41.48000 249.236
41.52000 240.610
41.56000 237.195
41.60000 241.095
41.64000 246.484
41.68000 250.466
41.72000 262.082
41.76000 241.867
41.80000 237.264
41.84000 249.978
41.88000 243.476
41.92000 241.503
41.96000 238.324
42.00000 248.298
42.04000 236.598
42.08000 245.053
42.12000 234.625
42.16000 247.039
42.20000 233.824
42.24000 236.050
42.28000 251.885
42.32000 243.383
42.36000 232.752
42.40000 233.132
42.44000 237.526
42.48000 233.495
42.52000 243.416
42.56000 231.196
42.60000 238.721
42.64000 234.803
42.68000 247.451
42.72000 240.043
42.76000 237.709
42.80000 239.136
42.84000 229.555
42.88000 228.553
42.92000 232.125
42.96000 229.882
43.00000 232.297
43.04000 232.107
43.08000 237.114
43.12000 242.669
43.16000 232.147
43.20000 228.662
43.24000 229.841
43.28000 238.219
43.32000 233.630
43.36000 232.101
43.40000 222.118
43.44000 233.950
43.48000 234.112
43.52000 224.223
43.56000 226.628
43.60000 234.695
43.64000 231.615
43.68000 235.249
43.72000 218.948
43.76000 232.720
43.80000 234.293
43.84000 225.341
43.88000 229.800
43.92000 228.997
43.96000 226.960
44.00000 222.218
44.04000 231.790
44.08000 225.885
44.12000 222.387
44.16000 230.577
44.20000 224.281
44.24000 218.132
44.28000 238.875
44.32000 234.036
44.36000 236.384
44.40000 229.226
44.44000 233.311
44.48000 240.947
44.52000 243.315
44.56000 229.284
44.60000 251.548
44.64000 250.001
44.68000 262.064
44.72000 280.280
44.76000 297.134
44.80000 305.521
44.84000 313.626
44.88000 337.081
44.92000 361.740
44.96000 372.720
45.00000 403.294
45.04000 430.302
45.08000 436.113
45.12000 432.012
45.16000 420.260
45.20000 417.333
45.24000 404.837
45.28000 381.267
45.32000 368.866
45.36000 354.079
45.40000 329.610
45.44000 315.480
45.48000 298.770
45.52000 283.378
45.56000 276.303
45.60000 279.594
45.64000 268.881
45.68000 245.556
45.72000 252.164
45.76000 241.860
45.80000 235.333
45.84000 237.381
45.88000 231.218
45.92000 229.898
45.96000 236.931
46.00000 222.306
46.04000 217.973
46.08000 214.652
46.12000 220.586
46.16000 213.443
46.20000 228.867
46.24000 209.005
46.28000 206.327
46.32000 200.874
46.36000 207.955
46.40000 211.994
46.44000 216.679
46.48000 202.234
46.52000 203.633
46.56000 202.852
46.60000 200.288
46.64000 195.877
46.68000 202.149
46.72000 200.672
46.76000 217.655
46.80000 201.303
46.84000 202.289
46.88000 215.164
46.92000 202.673
46.96000 202.835
47.00000 197.948
47.04000 192.904
47.08000 196.853
47.12000 194.929
47.16000 198.758
47.20000 188.207
47.24000 195.370
47.28000 185.979
47.32000 192.346
47.36000 200.177
47.40000 199.746
47.44000 186.098
47.48000 197.383
47.52000 190.188
47.56000 200.856
47.60000 188.858
47.64000 195.795
47.68000 192.229
47.72000 196.770
47.76000 185.886
47.80000 189.236
47.84000 189.765
47.88000 189.043
47.92000 189.267
47.96000 186.467
48.00000 189.976
48.04000 173.069
48.08000 200.340
48.12000 180.344
48.16000 181.201
48.20000 178.858
48.24000 180.675
48.28000 186.118
48.32000 188.951
48.36000 188.352
48.40000 192.310
48.44000 182.385
48.48000 183.979
48.52000 179.692
48.56000 181.384
48.60000 193.648
48.64000 180.656
48.68000 195.054
48.72000 186.684
48.76000 195.816
48.80000 184.876
48.84000 188.692
48.88000 174.239
48.92000 196.021
48.96000 175.738
49.00000 183.425
49.04000 172.684
49.08000 169.998
49.12000 181.089
49.16000 194.928
49.20000 190.316
49.24000 183.555
49.28000 180.785
49.32000 185.970
49.36000 174.129
49.40000 181.620
49.44000 181.569
49.48000 182.777
49.52000 184.132
49.56000 180.296
49.60000 168.867
49.64000 180.931
49.68000 186.414
49.72000 175.246
49.76000 166.345
49.80000 167.985
49.84000 169.160
49.88000 176.762
49.92000 178.805
49.96000 176.166
50.00000 175.741
50.04000 181.900
50.08000 184.653
50.12000 180.106
50.16000 180.805
50.20000 182.776
50.24000 189.873
50.28000 185.607
50.32000 183.523
50.36000 182.700
50.40000 192.064
50.44000 209.256
50.48000 202.941
50.52000 226.824
50.56000 227.649
50.60000 251.332
50.64000 241.628
50.68000 254.489
50.72000 255.452
50.76000 267.650
50.80000 253.417
50.84000 256.652
50.88000 242.084
50.92000 232.298
50.96000 229.250
51.00000 211.702
51.04000 204.348
51.08000 206.268
51.12000 200.721
51.16000 195.312
51.20000 189.981
51.24000 191.335
51.28000 179.995
51.32000 189.116
51.36000 181.709
51.40000 181.757
51.44000 178.577
51.48000 168.602
51.52000 161.468
51.56000 181.345
51.60000 169.897
51.64000 156.907
51.68000 166.683
51.72000 168.016
51.76000 162.639
51.80000 164.195
51.84000 160.013
51.88000 174.320
51.92000 181.555
51.96000 175.053
52.00000 161.283
52.04000 168.874
52.08000 152.793
52.12000 167.085
52.16000 162.524
52.20000 152.541
52.24000 157.809
52.28000 172.426
52.32000 162.213
52.36000 168.159
52.40000 159.793
52.44000 157.526
52.48000 154.054
52.52000 167.173
52.56000 173.072
52.60000 158.088
52.64000 166.154
52.68000 156.164
52.72000 155.727
52.76000 159.622
52.80000 160.885
52.84000 163.442
52.88000 162.810
52.92000 155.745
52.96000 158.959
53.00000 171.505
53.04000 160.449
53.08000 168.787
53.12000 166.320
53.16000 155.483
53.20000 164.227
53.24000 165.937
53.28000 178.264
53.32000 171.873
53.36000 157.077
53.40000 164.893
53.44000 166.218
53.48000 175.418
53.52000 149.273
53.56000 155.025
53.60000 161.684
53.64000 149.118
53.68000 155.758
53.72000 161.718
53.76000 158.433
53.80000 165.498
53.84000 143.753
53.88000 166.987
53.92000 151.867
53.96000 156.143
54.00000 148.809
54.04000 143.000
54.08000 155.869
54.12000 159.051
54.16000 159.893
54.20000 165.519
54.24000 156.765
54.28000 158.308
54.32000 160.690
54.36000 162.567
54.40000 153.600
54.44000 159.799
54.48000 168.028
54.52000 158.482
54.56000 162.715
54.60000 162.802
54.64000 160.228
54.68000 161.342
54.72000 162.092
54.76000 156.131
54.80000 171.058
54.84000 165.059
54.88000 159.796
54.92000 153.028
54.96000 157.047
55.00000 150.009
55.04000 167.909
55.08000 152.296
55.12000 164.732
55.16000 163.580
55.20000 177.098
55.24000 164.638
55.28000 180.208
55.32000 166.966
55.36000 176.045
55.40000 183.887
55.44000 186.899
55.48000 191.734
55.52000 195.581
55.56000 210.735
55.60000 223.761
55.64000 258.984
55.68000 281.199
55.72000 319.460
55.76000 363.855
55.80000 396.629
55.84000 452.211
55.88000 512.493
55.92000 540.958
55.96000 564.125
56.00000 563.490
56.04000 547.653
56.08000 526.044
56.12000 474.227
56.16000 434.607
56.20000 385.430
56.24000 321.823
56.28000 299.817
56.32000 270.803
56.36000 249.885
56.40000 247.250
56.44000 230.098
56.48000 217.513
56.52000 201.612
56.56000 198.274
56.60000 189.920
56.64000 180.522
56.68000 171.121
56.72000 171.671
56.76000 168.398
56.80000 161.704
56.84000 163.725
56.88000 150.042
56.92000 161.796
56.96000 158.078
57.00000 153.327
57.04000 166.543
57.08000 147.143
57.12000 155.371
57.16000 148.772
57.20000 152.054
57.24000 148.374
57.28000 157.247
57.32000 151.660
57.36000 145.992
57.40000 154.220
57.44000 142.578
57.48000 141.883
57.52000 142.545
57.56000 145.015
57.60000 149.715
57.64000 142.404
57.68000 140.908
57.72000 147.753
57.76000 149.111
57.80000 143.834
57.84000 150.760
57.88000 146.482
57.92000 142.337
57.96000 139.160
58.00000 149.924
58.04000 145.048
58.08000 140.811
58.12000 146.884
58.16000 140.570
58.20000 151.421
58.24000 138.284
58.28000 143.524
58.32000 142.082
58.36000 144.956
58.40000 143.696
58.44000 131.748
58.48000 137.838
58.52000 136.846
58.56000 137.740
58.60000 131.435
58.64000 132.706
58.68000 139.127
58.72000 133.553
58.76000 125.131
58.80000 141.498
58.84000 133.882
58.88000 133.075
58.92000 132.615
58.96000 146.157
59.00000 133.718
59.04000 134.379
59.08000 132.396
59.12000 138.713
59.16000 129.635
59.20000 128.898
59.24000 131.894
59.28000 127.676
59.32000 132.419
59.36000 129.643
59.40000 131.308
59.44000 134.007
59.48000 142.413
59.52000 138.136
59.56000 132.072
59.60000 137.709
59.64000 134.961
59.68000 139.320
59.72000 126.730
59.76000 134.422
59.80000 136.202
59.84000 136.022
59.88000 131.668
59.92000 131.826
59.96000 127.297
60.00000 137.263
60.04000 136.459
60.08000 127.838
60.12000 129.243
60.16000 129.827
60.20000 139.076
60.24000 144.311
60.28000 139.429
60.32000 129.376
60.36000 134.947
60.40000 129.372
60.44000 140.137
60.48000 135.257
60.52000 138.149
60.56000 130.212
60.60000 125.533
60.64000 140.443
60.68000 127.250
60.72000 137.334
60.76000 138.132
60.80000 135.457
60.84000 139.556
60.88000 132.711
60.92000 134.347
60.96000 136.044
61.00000 139.182
61.04000 141.889
61.08000 133.123
61.12000 126.957
61.16000 145.204
61.20000 142.745
61.24000 133.122
61.28000 143.129
61.32000 134.435
61.36000 133.768
61.40000 142.184
61.44000 145.940
61.48000 145.539
61.52000 170.240
61.56000 222.498
61.60000 274.393
61.64000 301.341
61.68000 317.718
61.72000 324.689
61.76000 306.874
61.80000 260.410
61.84000 193.522
61.88000 169.501
61.92000 159.124
61.96000 149.315
62.00000 140.049
62.04000 147.433
62.08000 133.796
62.12000 139.556
62.16000 132.867
62.20000 141.465
62.24000 139.656
62.28000 150.047
62.32000 137.826
62.36000 150.564
62.40000 140.314
62.44000 141.166
62.48000 141.119
62.52000 136.514
62.56000 139.595
62.60000 143.597
62.64000 150.525
62.68000 142.579
62.72000 145.333
62.76000 143.535
62.80000 148.446
62.84000 139.483
62.88000 147.900
62.92000 147.572
62.96000 147.336
63.00000 145.489
63.04000 133.756
63.08000 145.029
63.12000 139.810
63.16000 148.524
63.20000 147.391
63.24000 143.323
63.28000 144.025
63.32000 155.712
63.36000 150.763
63.40000 154.469
63.44000 146.461
63.48000 160.331
63.52000 147.148
63.56000 151.250
63.60000 153.791
63.64000 150.344
63.68000 143.690
63.72000 150.012
63.76000 150.799
63.80000 151.419
63.84000 155.088
63.88000 157.241
63.92000 163.543
63.96000 161.671
64.00000 164.102
64.04000 162.379
64.08000 156.080
64.12000 161.211
64.16000 156.820
64.20000 166.934
64.24000 176.028
64.28000 157.952
64.32000 170.060
64.36000 167.935
64.40000 161.404
64.44000 170.320
64.48000 167.999
64.52000 166.704
64.56000 160.226
64.60000 181.476
64.64000 172.593
64.68000 180.530
64.72000 176.946
64.76000 184.544
64.80000 176.062
64.84000 183.324
64.88000 199.014
64.92000 187.920
64.96000 205.279
65.00000 204.249
65.04000 206.883
65.08000 212.847
65.12000 220.564
65.16000 223.877
65.20000 222.556
65.24000 253.436
65.28000 273.028
65.32000 285.655
65.36000 303.293
65.40000 324.803
65.44000 352.395
65.48000 392.568
65.52000 407.255
65.56000 431.725
65.60000 447.973
65.64000 508.958
65.68000 557.854
65.72000 718.053
65.76000 1014.914
65.80000 1236.023
65.84000 1313.243
65.88000 1389.342
65.92000 1311.339
65.96000 1152.480
66.00000 822.872
66.04000 563.839
66.08000 436.201
66.12000 366.963
66.16000 348.479
66.20000 340.943
66.24000 341.022
66.28000 362.487
66.32000 427.435
66.36000 480.263
66.40000 508.932
66.44000 528.772
66.48000 517.538
66.52000 477.081
66.56000 402.570
66.60000 378.920
66.64000 352.717
66.68000 342.471
66.72000 346.222
66.76000 344.979
66.80000 343.054
66.84000 356.702
66.88000 355.884
66.92000 352.976
66.96000 358.691
67.00000 380.356
67.04000 387.736
67.08000 364.186
67.12000 384.357
67.16000 395.961
67.20000 409.440
67.24000 421.974
67.28000 410.552
67.32000 422.704
67.36000 442.607
67.40000 438.752
67.44000 447.610
67.48000 446.410
67.52000 433.555
67.56000 477.135
67.60000 463.867
67.64000 480.365
67.68000 495.068
67.72000 516.005
67.76000 511.374
67.80000 517.199
67.84000 535.831
67.88000 550.206
67.92000 568.344
67.96000 565.506
68.00000 594.119
68.04000 567.528
68.08000 587.610
68.12000 634.126
68.16000 633.850
68.20000 647.652
68.24000 678.108
68.28000 708.506
68.32000 710.707
68.36000 740.186
68.40000 763.464
68.44000 786.602
68.48000 834.223
68.52000 897.768
68.56000 957.473
68.60000 1114.347
68.64000 1360.762
68.68000 1558.575
68.72000 1886.305
68.76000 2188.366
68.80000 2525.243
68.84000 3076.828
68.88000 4054.939
68.92000 7304.993
68.96000 16832.672
69.00000 37467.523
69.04000 60776.957
69.08000 73694.672
69.12000 76830.211
69.16000 80008.617
69.20000 79710.102
69.24000 68122.703
69.28000 52133.211
69.32000 42572.336
69.36000 37978.773
69.40000 31621.365
69.44000 19945.412
69.48000 9539.905
69.52000 4304.515
69.56000 2539.181
69.60000 1870.052
69.64000 1557.243
69.68000 1326.057
69.72000 1185.844
69.76000 1082.062
69.80000 979.038
69.84000 918.126
69.88000 852.025
69.92000 795.162
69.96000 775.634
70.00000 752.492