File: XRD/22-09-2025 Dep 2/XY Data/BTO_Mapping_Theta2Theta_22-09-2025_001_38_-20-000_0-000.xy
20.00000 621.090
20.04000 580.214
20.08000 589.555
20.12000 545.179
20.16000 579.148
20.20000 577.219
20.24000 576.667
20.28000 568.217
20.32000 576.740
20.36000 573.834
20.40000 573.173
20.44000 568.679
20.48000 565.165
20.52000 563.885
20.56000 555.116
20.60000 551.319
20.64000 553.297
20.68000 558.258
20.72000 563.831
20.76000 559.282
20.80000 545.243
20.84000 568.813
20.88000 568.949
20.92000 574.158
20.96000 564.281
21.00000 547.613
21.04000 584.494
21.08000 552.016
21.12000 575.830
21.16000 552.898
21.20000 572.045
21.24000 582.717
21.28000 567.124
21.32000 580.167
21.36000 531.315
21.40000 596.031
21.44000 570.234
21.48000 568.872
21.52000 579.441
21.56000 576.226
21.60000 584.185
21.64000 585.655
21.68000 613.728
21.72000 611.421
21.76000 649.345
21.80000 705.272
21.84000 755.159
21.88000 799.195
21.92000 848.536
21.96000 892.761
22.00000 902.505
22.04000 919.277
22.08000 865.005
22.12000 843.076
22.16000 786.267
22.20000 764.307
22.24000 716.116
22.28000 669.567
22.32000 639.172
22.36000 622.847
22.40000 602.635
22.44000 577.449
22.48000 578.167
22.52000 576.992
22.56000 546.969
22.60000 555.874
22.64000 546.530
22.68000 546.175
22.72000 538.316
22.76000 547.539
22.80000 543.579
22.84000 515.233
22.88000 522.302
22.92000 523.654
22.96000 534.727
23.00000 520.591
23.04000 524.133
23.08000 512.251
23.12000 508.207
23.16000 516.422
23.20000 534.106
23.24000 513.016
23.28000 504.776
23.32000 505.587
23.36000 520.042
23.40000 508.702
23.44000 508.121
23.48000 519.198
23.52000 517.964
23.56000 503.088
23.60000 505.489
23.64000 529.237
23.68000 518.488
23.72000 521.975
23.76000 513.649
23.80000 492.265
23.84000 498.762
23.88000 518.340
23.92000 498.313
23.96000 493.478
24.00000 485.734
24.04000 493.802
24.08000 479.965
24.12000 498.122
24.16000 517.221
24.20000 493.648
24.24000 504.185
24.28000 484.182
24.32000 493.621
24.36000 500.580
24.40000 478.520
24.44000 502.679
24.48000 490.068
24.52000 484.587
24.56000 495.351
24.60000 476.483
24.64000 499.821
24.68000 488.075
24.72000 495.501
24.76000 495.337
24.80000 472.960
24.84000 480.078
24.88000 493.445
24.92000 506.702
24.96000 486.172
25.00000 481.627
25.04000 481.477
25.08000 476.541
25.12000 468.630
25.16000 477.314
25.20000 474.237
25.24000 495.473
25.28000 495.478
25.32000 480.853
25.36000 483.995
25.40000 480.027
25.44000 497.497
25.48000 471.250
25.52000 484.487
25.56000 487.396
25.60000 460.511
25.64000 472.211
25.68000 472.648
25.72000 467.461
25.76000 493.755
25.80000 486.316
25.84000 490.196
25.88000 467.588
25.92000 455.383
25.96000 453.375
26.00000 467.938
26.04000 476.521
26.08000 472.932
26.12000 456.020
26.16000 460.813
26.20000 467.675
26.24000 466.470
26.28000 472.174
26.32000 458.798
26.36000 445.567
26.40000 440.984
26.44000 465.111
26.48000 474.584
26.52000 460.678
26.56000 463.870
26.60000 454.263
26.64000 453.038
26.68000 451.953
26.72000 468.300
26.76000 457.423
26.80000 465.505
26.84000 457.807
26.88000 460.548
26.92000 452.817
26.96000 450.073
27.00000 445.474
27.04000 445.906
27.08000 442.026
27.12000 458.392
27.16000 450.341
27.20000 447.723
27.24000 462.728
27.28000 462.091
27.32000 424.051
27.36000 464.314
27.40000 447.371
27.44000 444.972
27.48000 445.482
27.52000 462.607
27.56000 429.589
27.60000 441.176
27.64000 443.110
27.68000 432.006
27.72000 447.684
27.76000 434.953
27.80000 437.317
27.84000 431.708
27.88000 432.334
27.92000 440.655
27.96000 426.894
28.00000 425.155
28.04000 453.047
28.08000 425.403
28.12000 444.380
28.16000 443.460
28.20000 439.615
28.24000 444.826
28.28000 443.768
28.32000 429.207
28.36000 419.304
28.40000 427.565
28.44000 424.052
28.48000 423.157
28.52000 432.056
28.56000 425.822
28.60000 421.657
28.64000 423.367
28.68000 434.163
28.72000 427.914
28.76000 411.655
28.80000 435.151
28.84000 421.991
28.88000 420.065
28.92000 425.369
28.96000 432.076
29.00000 417.362
29.04000 430.381
29.08000 439.006
29.12000 427.669
29.16000 397.715
29.20000 417.142
29.24000 406.634
29.28000 410.847
29.32000 425.777
29.36000 420.274
29.40000 417.252
29.44000 426.411
29.48000 418.980
29.52000 419.589
29.56000 428.959
29.60000 412.083
29.64000 424.999
29.68000 424.220
29.72000 438.164
29.76000 422.347
29.80000 419.440
29.84000 438.379
29.88000 418.195
29.92000 450.174
29.96000 452.234
30.00000 451.547
30.04000 455.153
30.08000 461.304
30.12000 446.976
30.16000 433.901
30.20000 436.874
30.24000 459.775
30.28000 442.488
30.32000 436.050
30.36000 439.303
30.40000 436.357
30.44000 455.878
30.48000 428.246
30.52000 434.592
30.56000 441.836
30.60000 432.214
30.64000 423.952
30.68000 434.489
30.72000 450.785
30.76000 462.804
30.80000 449.000
30.84000 494.805
30.88000 498.399
30.92000 527.221
30.96000 527.104
31.00000 614.668
31.04000 699.741
31.08000 873.814
31.12000 1113.419
31.16000 1475.565
31.20000 1880.566
31.24000 2405.554
31.28000 2998.914
31.32000 3362.609
31.36000 3557.473
31.40000 3499.149
31.44000 3313.269
31.48000 2851.235
31.52000 2342.502
31.56000 1867.068
31.60000 1496.575
31.64000 1146.327
31.68000 907.972
31.72000 790.896
31.76000 668.654
31.80000 586.694
31.84000 525.305
31.88000 496.933
31.92000 482.180
31.96000 462.228
32.00000 447.168
32.04000 441.354
32.08000 416.523
32.12000 408.184
32.16000 413.231
32.20000 392.340
32.24000 432.095
32.28000 433.136
32.32000 418.193
32.36000 416.092
32.40000 404.013
32.44000 409.402
32.48000 409.839
32.52000 410.821
32.56000 399.291
32.60000 401.470
32.64000 388.041
32.68000 397.596
32.72000 410.823
32.76000 383.070
32.80000 410.638
32.84000 399.706
32.88000 422.740
32.92000 439.352
32.96000 448.451
33.00000 431.538
33.04000 406.985
33.08000 403.512
33.12000 390.380
33.16000 382.559
33.20000 363.950
33.24000 349.234
33.28000 356.903
33.32000 373.064
33.36000 360.790
33.40000 363.864
33.44000 364.883
33.48000 346.021
33.52000 342.295
33.56000 335.195
33.60000 337.982
33.64000 349.642
33.68000 350.418
33.72000 328.706
33.76000 357.342
33.80000 342.548
33.84000 351.312
33.88000 361.406
33.92000 350.101
33.96000 358.350
34.00000 337.512
34.04000 351.492
34.08000 349.086
34.12000 325.263
34.16000 340.131
34.20000 339.047
34.24000 339.791
34.28000 350.480
34.32000 343.056
34.36000 345.535
34.40000 334.181
34.44000 344.931
34.48000 343.394
34.52000 332.245
34.56000 324.890
34.60000 339.325
34.64000 333.217
34.68000 319.743
34.72000 310.808
34.76000 314.879
34.80000 330.351
34.84000 331.011
34.88000 328.568
34.92000 311.188
34.96000 315.996
35.00000 325.076
35.04000 313.984
35.08000 334.215
35.12000 316.772
35.16000 310.883
35.20000 312.584
35.24000 310.770
35.28000 318.081
35.32000 320.370
35.36000 314.906
35.40000 324.159
35.44000 326.605
35.48000 311.781
35.52000 312.349
35.56000 302.757
35.60000 304.912
35.64000 314.893
35.68000 290.449
35.72000 310.486
35.76000 318.897
35.80000 299.421
35.84000 307.749
35.88000 308.448
35.92000 310.374
35.96000 317.732
36.00000 311.741
36.04000 305.024
36.08000 308.042
36.12000 327.753
36.16000 324.699
36.20000 311.518
36.24000 320.994
36.28000 323.620
36.32000 300.105
36.36000 313.045
36.40000 308.927
36.44000 312.340
36.48000 308.701
36.52000 314.771
36.56000 303.838
36.60000 320.966
36.64000 321.150
36.68000 311.551
36.72000 316.346
36.76000 303.693
36.80000 307.017
36.84000 313.364
36.88000 310.827
36.92000 309.578
36.96000 322.877
37.00000 317.189
37.04000 309.472
37.08000 314.370
37.12000 316.468
37.16000 311.490
37.20000 315.589
37.24000 297.209
37.28000 306.777
37.32000 304.898
37.36000 305.790
37.40000 295.890
37.44000 309.382
37.48000 312.073
37.52000 296.764
37.56000 300.151
37.60000 297.687
37.64000 304.295
37.68000 306.956
37.72000 309.774
37.76000 294.526
37.80000 292.401
37.84000 306.460
37.88000 304.957
37.92000 309.001
37.96000 312.943
38.00000 310.431
38.04000 311.511
38.08000 309.112
38.12000 327.783
38.16000 323.605
38.20000 329.184
38.24000 341.250
38.28000 360.581
38.32000 368.013
38.36000 395.671
38.40000 437.658
38.44000 483.575
38.48000 554.613
38.52000 605.807
38.56000 659.158
38.60000 704.037
38.64000 777.131
38.68000 782.149
38.72000 770.631
38.76000 719.326
38.80000 687.178
38.84000 582.111
38.88000 528.773
38.92000 474.678
38.96000 434.814
39.00000 385.679
39.04000 357.891
39.08000 344.280
39.12000 313.147
39.16000 319.545
39.20000 304.443
39.24000 307.975
39.28000 304.161
39.32000 302.185
39.36000 303.096
39.40000 289.895
39.44000 295.527
39.48000 292.273
39.52000 279.989
39.56000 287.214
39.60000 295.449
39.64000 268.821
39.68000 295.042
39.72000 276.079
39.76000 256.657
39.80000 286.803
39.84000 270.703
39.88000 272.662
39.92000 271.564
39.96000 274.120
40.00000 268.056
40.04000 276.472
40.08000 290.048
40.12000 274.993
40.16000 258.732
40.20000 265.899
40.24000 263.920
40.28000 267.728
40.32000 269.000
40.36000 273.651
40.40000 265.306
40.44000 260.818
40.48000 265.828
40.52000 270.112
40.56000 271.784
40.60000 261.115
40.64000 251.692
40.68000 252.913
40.72000 263.615
40.76000 267.418
40.80000 268.039
40.84000 262.834
40.88000 269.221
40.92000 261.460
40.96000 266.672
41.00000 246.317
41.04000 245.997
41.08000 248.059
41.12000 249.605
41.16000 249.997
41.20000 246.800
41.24000 255.958
41.28000 249.213
41.32000 249.155
41.36000 251.553
41.40000 255.839
41.44000 271.602
41.48000 254.128
41.52000 261.858
41.56000 256.264
41.60000 266.341
41.64000 254.555
41.68000 244.792
41.72000 259.157
41.76000 251.604
41.80000 251.765
41.84000 242.695
41.88000 243.219
41.92000 246.704
41.96000 252.029
42.00000 246.380
42.04000 253.528
42.08000 249.717
42.12000 244.573
42.16000 256.223
42.20000 246.819
42.24000 231.305
42.28000 234.049
42.32000 237.086
42.36000 224.447
42.40000 234.894
42.44000 245.027
42.48000 229.299
42.52000 230.030
42.56000 235.196
42.60000 234.206
42.64000 237.705
42.68000 256.770
42.72000 241.856
42.76000 237.696
42.80000 231.573
42.84000 244.992
42.88000 238.047
42.92000 230.019
42.96000 230.466
43.00000 241.550
43.04000 243.160
43.08000 248.723
43.12000 231.854
43.16000 237.816
43.20000 235.109
43.24000 226.621
43.28000 229.193
43.32000 239.296
43.36000 245.101
43.40000 242.129
43.44000 240.210
43.48000 246.190
43.52000 243.479
43.56000 240.275
43.60000 249.509
43.64000 230.076
43.68000 230.996
43.72000 230.772
43.76000 228.794
43.80000 223.555
43.84000 233.758
43.88000 239.073
43.92000 233.815
43.96000 235.615
44.00000 245.366
44.04000 244.045
44.08000 235.653
44.12000 246.108
44.16000 229.604
44.20000 242.408
44.24000 244.931
44.28000 240.558
44.32000 243.807
44.36000 267.970
44.40000 256.386
44.44000 262.716
44.48000 257.732
44.52000 263.530
44.56000 287.672
44.60000 311.876
44.64000 314.391
44.68000 324.501
44.72000 355.491
44.76000 384.723
44.80000 418.061
44.84000 456.554
44.88000 491.412
44.92000 505.137
44.96000 513.809
45.00000 560.457
45.04000 536.807
45.08000 498.905
45.12000 496.914
45.16000 458.080
45.20000 432.131
45.24000 409.770
45.28000 385.909
45.32000 353.957
45.36000 346.662
45.40000 329.044
45.44000 299.547
45.48000 278.307
45.52000 265.196
45.56000 273.398
45.60000 258.932
45.64000 249.658
45.68000 253.738
45.72000 257.140
45.76000 247.637
45.80000 237.003
45.84000 235.685
45.88000 229.762
45.92000 225.788
45.96000 225.108
46.00000 237.485
46.04000 213.605
46.08000 207.982
46.12000 224.539
46.16000 216.821
46.20000 205.119
46.24000 214.153
46.28000 208.168
46.32000 206.610
46.36000 209.732
46.40000 207.894
46.44000 192.981
46.48000 208.162
46.52000 197.847
46.56000 210.797
46.60000 204.003
46.64000 206.907
46.68000 203.088
46.72000 196.396
46.76000 225.535
46.80000 213.569
46.84000 202.210
46.88000 203.556
46.92000 201.895
46.96000 213.683
47.00000 196.874
47.04000 207.378
47.08000 194.514
47.12000 208.495
47.16000 183.493
47.20000 190.507
47.24000 195.548
47.28000 196.184
47.32000 201.134
47.36000 192.628
47.40000 197.290
47.44000 190.416
47.48000 195.451
47.52000 191.394
47.56000 202.678
47.60000 187.136
47.64000 188.104
47.68000 189.154
47.72000 194.053
47.76000 202.755
47.80000 187.210
47.84000 183.420
47.88000 197.806
47.92000 183.086
47.96000 186.320
48.00000 192.707
48.04000 189.607
48.08000 191.511
48.12000 193.728
48.16000 183.794
48.20000 188.628
48.24000 184.018
48.28000 186.310
48.32000 192.439
48.36000 201.754
48.40000 196.380
48.44000 196.058
48.48000 186.110
48.52000 184.627
48.56000 184.426
48.60000 185.370
48.64000 180.736
48.68000 194.331
48.72000 187.677
48.76000 191.200
48.80000 182.170
48.84000 180.188
48.88000 177.453
48.92000 189.470
48.96000 184.567
49.00000 184.350
49.04000 186.183
49.08000 187.504
49.12000 194.237
49.16000 181.786
49.20000 183.949
49.24000 183.201
49.28000 191.249
49.32000 178.453
49.36000 179.277
49.40000 177.810
49.44000 193.701
49.48000 192.741
49.52000 184.087
49.56000 189.852
49.60000 194.417
49.64000 184.635
49.68000 168.723
49.72000 178.302
49.76000 187.028
49.80000 176.863
49.84000 184.922
49.88000 179.740
49.92000 166.369
49.96000 184.904
50.00000 181.915
50.04000 179.668
50.08000 185.978
50.12000 179.801
50.16000 185.460
50.20000 188.883
50.24000 191.224
50.28000 207.203
50.32000 199.280
50.36000 213.625
50.40000 223.533
50.44000 242.704
50.48000 251.581
50.52000 254.393
50.56000 267.782
50.60000 255.842
50.64000 286.127
50.68000 264.530
50.72000 288.342
50.76000 271.902
50.80000 254.670
50.84000 249.683
50.88000 233.406
50.92000 233.885
50.96000 225.028
51.00000 219.122
51.04000 190.254
51.08000 193.493
51.12000 196.221
51.16000 197.057
51.20000 183.637
51.24000 199.987
51.28000 175.862
51.32000 179.511
51.36000 179.715
51.40000 190.063
51.44000 171.506
51.48000 179.492
51.52000 177.019
51.56000 171.753
51.60000 168.350
51.64000 173.168
51.68000 176.179
51.72000 176.349
51.76000 175.080
51.80000 168.637
51.84000 165.440
51.88000 168.123
51.92000 168.938
51.96000 170.331
52.00000 165.456
52.04000 173.380
52.08000 161.784
52.12000 154.410
52.16000 155.555
52.20000 167.477
52.24000 159.236
52.28000 170.233
52.32000 160.124
52.36000 167.164
52.40000 155.942
52.44000 173.873
52.48000 172.201
52.52000 176.949
52.56000 160.874
52.60000 173.507
52.64000 164.081
52.68000 166.437
52.72000 160.874
52.76000 158.020
52.80000 156.165
52.84000 161.173
52.88000 165.477
52.92000 158.772
52.96000 161.181
53.00000 169.303
53.04000 158.650
53.08000 161.627
53.12000 158.982
53.16000 161.538
53.20000 163.686
53.24000 162.100
53.28000 168.342
53.32000 164.324
53.36000 168.520
53.40000 169.000
53.44000 161.601
53.48000 176.656
53.52000 159.556
53.56000 162.922
53.60000 153.399
53.64000 166.396
53.68000 159.717
53.72000 154.632
53.76000 157.393
53.80000 165.931
53.84000 155.230
53.88000 166.719
53.92000 175.588
53.96000 157.090
54.00000 162.963
54.04000 144.528
54.08000 159.054
54.12000 155.736
54.16000 152.568
54.20000 159.032
54.24000 158.546
54.28000 156.636
54.32000 161.360
54.36000 156.572
54.40000 166.319
54.44000 167.689
54.48000 163.668
54.52000 165.717
54.56000 150.439
54.60000 167.153
54.64000 153.055
54.68000 160.023
54.72000 165.433
54.76000 168.614
54.80000 166.202
54.84000 156.455
54.88000 168.237
54.92000 156.599
54.96000 161.786
55.00000 157.383
55.04000 172.152
55.08000 163.407
55.12000 168.077
55.16000 179.639
55.20000 184.898
55.24000 184.492
55.28000 174.627
55.32000 195.346
55.36000 200.963
55.40000 210.687
55.44000 223.599
55.48000 240.117
55.52000 257.736
55.56000 277.420
55.60000 317.209
55.64000 362.402
55.68000 393.993
55.72000 459.149
55.76000 474.983
55.80000 524.825
55.84000 558.213
55.88000 559.718
55.92000 565.065
55.96000 559.599
56.00000 528.914
56.04000 453.891
56.08000 444.465
56.12000 397.747
56.16000 367.520
56.20000 320.064
56.24000 290.700
56.28000 261.517
56.32000 248.222
56.36000 239.742
56.40000 215.606
56.44000 214.238
56.48000 200.722
56.52000 197.893
56.56000 188.842
56.60000 188.029
56.64000 181.966
56.68000 179.065
56.72000 162.729
56.76000 160.730
56.80000 168.075
56.84000 170.885
56.88000 143.415
56.92000 158.477
56.96000 148.998
57.00000 164.044
57.04000 156.681
57.08000 141.726
57.12000 151.591
57.16000 156.780
57.20000 147.835
57.24000 147.912
57.28000 141.783
57.32000 151.686
57.36000 140.307
57.40000 146.017
57.44000 147.772
57.48000 147.036
57.52000 157.910
57.56000 151.977
57.60000 160.657
57.64000 155.475
57.68000 154.892
57.72000 138.036
57.76000 140.346
57.80000 152.837
57.84000 145.353
57.88000 144.606
57.92000 142.590
57.96000 150.527
58.00000 148.232
58.04000 140.797
58.08000 146.426
58.12000 130.663
58.16000 144.723
58.20000 143.248
58.24000 141.350
58.28000 133.998
58.32000 133.408
58.36000 142.387
58.40000 137.804
58.44000 137.912
58.48000 141.302
58.52000 139.146
58.56000 145.118
58.60000 137.253
58.64000 137.600
58.68000 139.542
58.72000 140.342
58.76000 135.038
58.80000 143.388
58.84000 137.324
58.88000 144.810
58.92000 148.198
58.96000 146.987
59.00000 137.825
59.04000 140.294
59.08000 136.663
59.12000 136.908
59.16000 141.864
59.20000 137.370
59.24000 139.211
59.28000 145.602
59.32000 132.679
59.36000 129.949
59.40000 141.599
59.44000 132.817
59.48000 131.605
59.52000 137.814
59.56000 127.249
59.60000 127.218
59.64000 147.455
59.68000 141.538
59.72000 147.203
59.76000 134.204
59.80000 137.221
59.84000 138.788
59.88000 140.516
59.92000 133.470
59.96000 130.547
60.00000 128.839
60.04000 128.315
60.08000 139.021
60.12000 136.875
60.16000 140.150
60.20000 137.786
60.24000 134.484
60.28000 133.035
60.32000 141.987
60.36000 140.316
60.40000 125.274
60.44000 126.996
60.48000 135.558
60.52000 128.142
60.56000 137.315
60.60000 136.786
60.64000 137.558
60.68000 127.967
60.72000 131.535
60.76000 141.038
60.80000 140.971
60.84000 133.719
60.88000 138.106
60.92000 136.116
60.96000 125.460
61.00000 133.474
61.04000 146.458
61.08000 137.078
61.12000 149.288
61.16000 133.077
61.20000 143.854
61.24000 149.332
61.28000 132.926
61.32000 147.727
61.36000 146.628
61.40000 132.188
61.44000 145.489
61.48000 153.900
61.52000 182.944
61.56000 244.177
61.60000 301.389
61.64000 352.905
61.68000 377.462
61.72000 370.283
61.76000 331.724
61.80000 279.635
61.84000 216.058
61.88000 166.459
61.92000 158.509
61.96000 157.380
62.00000 145.988
62.04000 144.197
62.08000 139.426
62.12000 146.355
62.16000 139.886
62.20000 133.878
62.24000 145.124
62.28000 135.816
62.32000 142.210
62.36000 144.430
62.40000 160.434
62.44000 145.761
62.48000 145.006
62.52000 140.369
62.56000 142.581
62.60000 162.851
62.64000 139.872
62.68000 149.571
62.72000 144.178
62.76000 149.634
62.80000 155.000
62.84000 150.186
62.88000 147.293
62.92000 143.863
62.96000 148.380
63.00000 146.054
63.04000 160.167
63.08000 155.327
63.12000 147.405
63.16000 153.459
63.20000 150.066
63.24000 143.502
63.28000 148.474
63.32000 159.525
63.36000 149.157
63.40000 154.962
63.44000 146.719
63.48000 149.265
63.52000 158.228
63.56000 151.828
63.60000 148.290
63.64000 157.360
63.68000 153.000
63.72000 154.021
63.76000 152.606
63.80000 153.427
63.84000 167.119
63.88000 152.863
63.92000 161.318
63.96000 147.964
64.00000 154.818
64.04000 157.849
64.08000 166.201
64.12000 158.381
64.16000 163.010
64.20000 166.059
64.24000 165.746
64.28000 157.949
64.32000 156.489
64.36000 175.715
64.40000 172.219
64.44000 173.883
64.48000 171.671
64.52000 174.764
64.56000 181.458
64.60000 184.500
64.64000 175.143
64.68000 177.059
64.72000 186.243
64.76000 185.876
64.80000 177.198
64.84000 190.322
64.88000 192.316
64.92000 207.742
64.96000 198.560
65.00000 215.385
65.04000 202.446
65.08000 214.304
65.12000 231.132
65.16000 246.221
65.20000 260.524
65.24000 284.232
65.28000 291.831
65.32000 320.214
65.36000 354.709
65.40000 381.814
65.44000 402.144
65.48000 410.127
65.52000 441.572
65.56000 447.723
65.60000 466.584
65.64000 521.487
65.68000 618.002
65.72000 819.938
65.76000 1136.978
65.80000 1421.909
65.84000 1587.912
65.88000 1576.200
65.92000 1501.987
65.96000 1278.970
66.00000 864.598
66.04000 608.286
66.08000 451.949
66.12000 402.362
66.16000 375.164
66.20000 376.010
66.24000 387.389
66.28000 439.752
66.32000 491.303
66.36000 551.996
66.40000 568.595
66.44000 568.967
66.48000 571.747
66.52000 507.026
66.56000 442.073
66.60000 378.498
66.64000 371.904
66.68000 364.536
66.72000 359.590
66.76000 374.750
66.80000 354.730
66.84000 358.678
66.88000 375.343
66.92000 373.700
66.96000 371.808
67.00000 403.964
67.04000 406.879
67.08000 418.804
67.12000 422.729
67.16000 418.036
67.20000 420.184
67.24000 440.264
67.28000 438.865
67.32000 457.441
67.36000 448.505
67.40000 452.414
67.44000 465.399
67.48000 478.780
67.52000 481.828
67.56000 496.739
67.60000 498.538
67.64000 533.260
67.68000 538.483
67.72000 537.361
67.76000 539.930
67.80000 569.985
67.84000 561.573
67.88000 580.585
67.92000 584.132
67.96000 613.440
68.00000 625.840
68.04000 635.144
68.08000 637.944
68.12000 671.656
68.16000 702.940
68.20000 722.112
68.24000 716.737
68.28000 763.329
68.32000 780.100
68.36000 803.283
68.40000 867.881
68.44000 864.004
68.48000 949.655
68.52000 999.946
68.56000 1109.469
68.60000 1290.574
68.64000 1510.157
68.68000 1834.842
68.72000 2171.904
68.76000 2489.708
68.80000 2984.118
68.84000 3631.411
68.88000 5097.332
68.92000 9527.563
68.96000 22364.355
69.00000 48208.918
69.04000 75519.055
69.08000 89537.969
69.12000 92715.703
69.16000 96343.234
69.20000 94470.570
69.24000 79466.625
69.28000 61595.609
69.32000 50499.621
69.36000 44839.477
69.40000 36151.816
69.44000 22225.629
69.48000 10524.280
69.52000 4559.404
69.56000 2750.670
69.60000 2082.315
69.64000 1680.342
69.68000 1472.079
69.72000 1290.668
69.76000 1156.447
69.80000 1118.302
69.84000 1009.486
69.88000 935.911
69.92000 886.672
69.96000 874.383
70.00000 835.917