File: XRD/22-09-2025 Dep 2/XY Data/BTO_Mapping_Theta2Theta_22-09-2025_001_63_12-470_-15-637.xy
20.00000 567.051
20.04000 567.546
20.08000 588.478
20.12000 572.993
20.16000 583.015
20.20000 567.759
20.24000 570.310
20.28000 559.732
20.32000 554.652
20.36000 575.349
20.40000 582.315
20.44000 544.913
20.48000 559.717
20.52000 554.998
20.56000 561.154
20.60000 546.958
20.64000 560.664
20.68000 563.805
20.72000 552.700
20.76000 577.626
20.80000 566.817
20.84000 557.435
20.88000 564.924
20.92000 559.165
20.96000 550.666
21.00000 572.395
21.04000 556.506
21.08000 554.584
21.12000 545.569
21.16000 561.725
21.20000 545.459
21.24000 539.616
21.28000 558.308
21.32000 551.385
21.36000 554.754
21.40000 563.703
21.44000 556.167
21.48000 554.110
21.52000 555.344
21.56000 563.064
21.60000 547.437
21.64000 554.247
21.68000 572.653
21.72000 580.111
21.76000 596.898
21.80000 612.659
21.84000 633.801
21.88000 646.618
21.92000 679.188
21.96000 698.236
22.00000 703.639
22.04000 743.452
22.08000 750.782
22.12000 756.077
22.16000 754.655
22.20000 727.466
22.24000 727.505
22.28000 686.925
22.32000 665.858
22.36000 621.188
22.40000 577.796
22.44000 581.043
22.48000 594.803
22.52000 564.538
22.56000 552.225
22.60000 563.733
22.64000 522.199
22.68000 545.166
22.72000 532.291
22.76000 544.486
22.80000 549.896
22.84000 544.198
22.88000 528.661
22.92000 541.823
22.96000 518.683
23.00000 545.434
23.04000 515.435
23.08000 520.887
23.12000 501.896
23.16000 506.248
23.20000 507.742
23.24000 534.778
23.28000 507.941
23.32000 505.589
23.36000 535.582
23.40000 514.219
23.44000 498.559
23.48000 509.760
23.52000 513.302
23.56000 523.659
23.60000 518.923
23.64000 515.284
23.68000 516.021
23.72000 521.913
23.76000 517.681
23.80000 512.278
23.84000 522.623
23.88000 518.981
23.92000 520.272
23.96000 549.793
24.00000 516.576
24.04000 540.540
24.08000 532.754
24.12000 525.209
24.16000 522.656
24.20000 524.052
24.24000 526.587
24.28000 491.636
24.32000 496.995
24.36000 501.471
24.40000 491.634
24.44000 514.847
24.48000 492.090
24.52000 496.780
24.56000 475.401
24.60000 483.029
24.64000 479.983
24.68000 480.380
24.72000 489.206
24.76000 484.999
24.80000 476.313
24.84000 496.686
24.88000 505.492
24.92000 468.246
24.96000 459.886
25.00000 484.436
25.04000 479.996
25.08000 486.104
25.12000 485.791
25.16000 492.823
25.20000 479.279
25.24000 494.681
25.28000 494.193
25.32000 489.599
25.36000 485.716
25.40000 489.629
25.44000 475.914
25.48000 470.980
25.52000 489.890
25.56000 465.604
25.60000 467.566
25.64000 481.257
25.68000 466.033
25.72000 454.954
25.76000 490.401
25.80000 447.723
25.84000 471.358
25.88000 450.088
25.92000 476.389
25.96000 473.841
26.00000 463.070
26.04000 460.721
26.08000 468.227
26.12000 454.445
26.16000 457.727
26.20000 455.943
26.24000 457.666
26.28000 452.932
26.32000 449.419
26.36000 467.756
26.40000 460.704
26.44000 443.014
26.48000 427.770
26.52000 454.199
26.56000 447.811
26.60000 451.716
26.64000 449.232
26.68000 466.243
26.72000 443.866
26.76000 452.802
26.80000 457.674
26.84000 443.583
26.88000 455.284
26.92000 448.273
26.96000 454.037
27.00000 467.792
27.04000 458.582
27.08000 436.958
27.12000 454.846
27.16000 448.909
27.20000 457.552
27.24000 431.586
27.28000 436.770
27.32000 455.645
27.36000 437.701
27.40000 411.823
27.44000 433.817
27.48000 445.569
27.52000 442.574
27.56000 443.083
27.60000 440.993
27.64000 444.409
27.68000 437.832
27.72000 439.364
27.76000 435.949
27.80000 448.375
27.84000 426.240
27.88000 433.540
27.92000 429.400
27.96000 436.036
28.00000 438.530
28.04000 424.502
28.08000 439.178
28.12000 417.905
28.16000 432.289
28.20000 438.069
28.24000 441.216
28.28000 450.151
28.32000 457.213
28.36000 437.440
28.40000 437.680
28.44000 446.183
28.48000 442.432
28.52000 424.083
28.56000 425.961
28.60000 425.709
28.64000 449.201
28.68000 430.198
28.72000 425.758
28.76000 415.928
28.80000 432.755
28.84000 423.267
28.88000 416.955
28.92000 410.522
28.96000 420.639
29.00000 405.536
29.04000 394.387
29.08000 407.571
29.12000 421.815
29.16000 433.192
29.20000 415.512
29.24000 424.272
29.28000 414.869
29.32000 432.155
29.36000 434.551
29.40000 399.752
29.44000 404.401
29.48000 408.453
29.52000 422.258
29.56000 403.392
29.60000 420.771
29.64000 411.259
29.68000 409.927
29.72000 414.940
29.76000 419.679
29.80000 428.251
29.84000 432.000
29.88000 431.805
29.92000 449.094
29.96000 428.081
30.00000 439.441
30.04000 428.612
30.08000 445.278
30.12000 463.993
30.16000 447.205
30.20000 437.796
30.24000 445.317
30.28000 451.682
30.32000 439.293
30.36000 425.816
30.40000 435.059
30.44000 417.592
30.48000 435.790
30.52000 435.213
30.56000 437.956
30.60000 457.979
30.64000 451.031
30.68000 440.010
30.72000 451.424
30.76000 468.588
30.80000 479.663
30.84000 500.820
30.88000 502.714
30.92000 518.977
30.96000 560.431
31.00000 598.136
31.04000 662.461
31.08000 715.575
31.12000 921.934
31.16000 1089.108
31.20000 1416.454
31.24000 1831.188
31.28000 2264.197
31.32000 2696.425
31.36000 3116.668
31.40000 3264.617
31.44000 3215.553
31.48000 3029.253
31.52000 2603.221
31.56000 2133.969
31.60000 1711.824
31.64000 1343.326
31.68000 1044.604
31.72000 874.216
31.76000 744.532
31.80000 640.735
31.84000 612.762
31.88000 538.583
31.92000 524.212
31.96000 474.998
32.00000 463.277
32.04000 456.163
32.08000 442.574
32.12000 438.712
32.16000 423.438
32.20000 406.408
32.24000 431.858
32.28000 417.673
32.32000 404.110
32.36000 404.591
32.40000 410.263
32.44000 408.747
32.48000 414.636
32.52000 401.245
32.56000 398.635
32.60000 403.161
32.64000 376.202
32.68000 405.166
32.72000 395.246
32.76000 393.333
32.80000 370.661
32.84000 408.631
32.88000 413.187
32.92000 416.321
32.96000 397.380
33.00000 412.281
33.04000 421.958
33.08000 399.123
33.12000 370.259
33.16000 358.636
33.20000 353.849
33.24000 357.042
33.28000 344.351
33.32000 351.835
33.36000 358.930
33.40000 351.372
33.44000 349.823
33.48000 361.602
33.52000 362.325
33.56000 346.098
33.60000 353.937
33.64000 350.741
33.68000 349.621
33.72000 350.586
33.76000 346.375
33.80000 357.001
33.84000 346.098
33.88000 345.632
33.92000 348.655
33.96000 343.028
34.00000 346.639
34.04000 340.467
34.08000 338.595
34.12000 339.426
34.16000 338.858
34.20000 331.017
34.24000 326.771
34.28000 345.812
34.32000 340.170
34.36000 337.459
34.40000 352.033
34.44000 340.750
34.48000 358.585
34.52000 334.590
34.56000 339.218
34.60000 341.828
34.64000 329.042
34.68000 327.409
34.72000 321.358
34.76000 333.206
34.80000 328.404
34.84000 344.868
34.88000 320.901
34.92000 315.736
34.96000 339.950
35.00000 321.060
35.04000 326.323
35.08000 321.189
35.12000 317.593
35.16000 321.234
35.20000 314.229
35.24000 312.938
35.28000 328.203
35.32000 325.995
35.36000 318.265
35.40000 324.560
35.44000 313.523
35.48000 307.718
35.52000 318.079
35.56000 304.729
35.60000 303.226
35.64000 312.603
35.68000 310.293
35.72000 313.321
35.76000 311.793
35.80000 298.273
35.84000 303.262
35.88000 324.188
35.92000 316.936
35.96000 301.155
36.00000 303.163
36.04000 312.010
36.08000 301.556
36.12000 311.306
36.16000 300.607
36.20000 292.081
36.24000 313.895
36.28000 283.680
36.32000 294.809
36.36000 295.322
36.40000 291.787
36.44000 279.735
36.48000 296.748
36.52000 318.636
36.56000 295.908
36.60000 317.158
36.64000 299.947
36.68000 304.229
36.72000 296.514
36.76000 315.942
36.80000 311.482
36.84000 297.844
36.88000 300.721
36.92000 299.697
36.96000 304.254
37.00000 299.686
37.04000 306.558
37.08000 308.934
37.12000 292.593
37.16000 313.367
37.20000 302.167
37.24000 305.794
37.28000 304.735
37.32000 306.567
37.36000 303.481
37.40000 288.976
37.44000 286.453
37.48000 279.631
37.52000 305.047
37.56000 316.612
37.60000 297.797
37.64000 273.971
37.68000 289.097
37.72000 288.973
37.76000 290.955
37.80000 290.306
37.84000 309.044
37.88000 291.919
37.92000 281.322
37.96000 293.860
38.00000 302.431
38.04000 299.060
38.08000 312.625
38.12000 312.125
38.16000 305.390
38.20000 319.343
38.24000 319.033
38.28000 339.270
38.32000 323.810
38.36000 355.145
38.40000 368.728
38.44000 392.418
38.48000 414.804
38.52000 526.893
38.56000 603.779
38.60000 691.426
38.64000 848.220
38.68000 954.602
38.72000 1016.979
38.76000 1055.232
38.80000 1047.679
38.84000 929.483
38.88000 800.639
38.92000 693.588
38.96000 567.085
39.00000 459.326
39.04000 416.309
39.08000 377.746
39.12000 335.233
39.16000 319.869
39.20000 305.184
39.24000 308.599
39.28000 294.851
39.32000 283.027
39.36000 295.918
39.40000 285.504
39.44000 292.452
39.48000 295.135
39.52000 279.761
39.56000 277.409
39.60000 280.167
39.64000 284.303
39.68000 283.878
39.72000 263.176
39.76000 267.557
39.80000 278.110
39.84000 267.845
39.88000 276.367
39.92000 261.296
39.96000 253.119
40.00000 280.718
40.04000 264.443
40.08000 256.479
40.12000 276.355
40.16000 261.081
40.20000 264.685
40.24000 259.875
40.28000 261.425
40.32000 270.406
40.36000 262.404
40.40000 254.257
40.44000 245.760
40.48000 257.153
40.52000 260.747
40.56000 252.531
40.60000 259.913
40.64000 263.394
40.68000 246.219
40.72000 253.971
40.76000 261.393
40.80000 262.257
40.84000 248.393
40.88000 246.067
40.92000 249.805
40.96000 246.641
41.00000 253.154
41.04000 250.890
41.08000 260.521
41.12000 227.735
41.16000 247.476
41.20000 249.435
41.24000 246.545
41.28000 256.689
41.32000 253.407
41.36000 248.109
41.40000 242.113
41.44000 250.730
41.48000 251.874
41.52000 245.096
41.56000 235.871
41.60000 244.921
41.64000 234.189
41.68000 240.289
41.72000 247.572
41.76000 252.424
41.80000 240.980
41.84000 253.097
41.88000 244.374
41.92000 240.878
41.96000 258.262
42.00000 244.043
42.04000 239.192
42.08000 228.520
42.12000 244.772
42.16000 241.343
42.20000 243.015
42.24000 231.898
42.28000 231.451
42.32000 232.038
42.36000 234.641
42.40000 239.556
42.44000 236.768
42.48000 234.056
42.52000 238.761
42.56000 233.680
42.60000 237.219
42.64000 241.359
42.68000 231.033
42.72000 242.259
42.76000 237.485
42.80000 233.756
42.84000 226.826
42.88000 244.426
42.92000 243.197
42.96000 234.129
43.00000 240.943
43.04000 236.225
43.08000 245.464
43.12000 229.116
43.16000 223.419
43.20000 225.505
43.24000 228.627
43.28000 229.724
43.32000 232.013
43.36000 237.761
43.40000 225.456
43.44000 229.349
43.48000 229.070
43.52000 232.899
43.56000 233.688
43.60000 239.286
43.64000 226.947
43.68000 213.291
43.72000 220.600
43.76000 222.670
43.80000 236.906
43.84000 222.238
43.88000 221.150
43.92000 227.348
43.96000 216.112
44.00000 213.317
44.04000 212.636
44.08000 229.304
44.12000 239.283
44.16000 222.208
44.20000 217.748
44.24000 216.640
44.28000 228.746
44.32000 223.945
44.36000 216.323
44.40000 229.681
44.44000 226.750
44.48000 224.739
44.52000 237.089
44.56000 240.340
44.60000 241.308
44.64000 252.021
44.68000 258.240
44.72000 258.553
44.76000 266.220
44.80000 277.792
44.84000 287.210
44.88000 301.594
44.92000 309.447
44.96000 325.248
45.00000 337.231
45.04000 372.743
45.08000 396.518
45.12000 387.996
45.16000 376.195
45.20000 390.398
45.24000 385.496
45.28000 357.187
45.32000 344.841
45.36000 345.879
45.40000 316.029
45.44000 303.225
45.48000 286.725
45.52000 293.136
45.56000 293.085
45.60000 263.827
45.64000 259.679
45.68000 243.628
45.72000 247.470
45.76000 245.665
45.80000 233.805
45.84000 227.283
45.88000 232.002
45.92000 231.117
45.96000 221.180
46.00000 214.239
46.04000 234.935
46.08000 206.089
46.12000 229.242
46.16000 210.527
46.20000 201.205
46.24000 215.462
46.28000 207.724
46.32000 218.044
46.36000 209.025
46.40000 204.444
46.44000 202.527
46.48000 205.486
46.52000 188.952
46.56000 192.711
46.60000 211.228
46.64000 191.552
46.68000 208.264
46.72000 207.393
46.76000 199.498
46.80000 208.994
46.84000 189.918
46.88000 196.946
46.92000 194.694
46.96000 210.282
47.00000 193.500
47.04000 196.424
47.08000 201.979
47.12000 199.845
47.16000 181.783
47.20000 200.561
47.24000 198.313
47.28000 188.665
47.32000 193.156
47.36000 198.054
47.40000 186.472
47.44000 196.576
47.48000 190.465
47.52000 189.615
47.56000 191.541
47.60000 193.857
47.64000 190.449
47.68000 191.542
47.72000 192.527
47.76000 189.390
47.80000 200.933
47.84000 181.052
47.88000 191.304
47.92000 185.838
47.96000 188.928
48.00000 178.143
48.04000 173.711
48.08000 178.811
48.12000 190.429
48.16000 181.162
48.20000 182.623
48.24000 192.489
48.28000 190.173
48.32000 190.330
48.36000 191.441
48.40000 179.330
48.44000 181.481
48.48000 192.991
48.52000 180.974
48.56000 177.979
48.60000 176.113
48.64000 181.704
48.68000 178.897
48.72000 187.198
48.76000 184.915
48.80000 186.083
48.84000 175.953
48.88000 187.837
48.92000 182.519
48.96000 176.406
49.00000 188.757
49.04000 169.432
49.08000 177.280
49.12000 174.882
49.16000 186.783
49.20000 189.374
49.24000 179.781
49.28000 183.558
49.32000 166.607
49.36000 178.407
49.40000 177.206
49.44000 180.450
49.48000 179.947
49.52000 166.982
49.56000 193.639
49.60000 177.528
49.64000 176.149
49.68000 169.362
49.72000 173.550
49.76000 175.695
49.80000 182.727
49.84000 172.950
49.88000 176.099
49.92000 175.815
49.96000 163.180
50.00000 179.946
50.04000 170.519
50.08000 185.461
50.12000 173.818
50.16000 174.411
50.20000 180.417
50.24000 179.188
50.28000 177.786
50.32000 184.323
50.36000 187.328
50.40000 190.529
50.44000 191.349
50.48000 201.611
50.52000 205.326
50.56000 208.333
50.60000 234.991
50.64000 244.719
50.68000 255.484
50.72000 254.696
50.76000 263.323
50.80000 283.245
50.84000 259.108
50.88000 240.892
50.92000 240.260
50.96000 211.778
51.00000 216.492
51.04000 201.066
51.08000 197.860
51.12000 196.331
51.16000 188.973
51.20000 189.445
51.24000 182.306
51.28000 179.084
51.32000 173.950
51.36000 174.532
51.40000 173.714
51.44000 178.042
51.48000 174.321
51.52000 179.601
51.56000 162.200
51.60000 161.589
51.64000 173.336
51.68000 161.648
51.72000 163.545
51.76000 163.300
51.80000 163.506
51.84000 162.114
51.88000 166.653
51.92000 169.277
51.96000 161.270
52.00000 172.619
52.04000 164.283
52.08000 169.805
52.12000 171.750
52.16000 165.638
52.20000 152.054
52.24000 155.920
52.28000 155.415
52.32000 154.982
52.36000 165.653
52.40000 151.731
52.44000 153.970
52.48000 160.556
52.52000 155.819
52.56000 158.405
52.60000 161.811
52.64000 160.934
52.68000 172.264
52.72000 159.908
52.76000 158.529
52.80000 155.287
52.84000 170.327
52.88000 156.647
52.92000 161.063
52.96000 151.209
53.00000 155.836
53.04000 156.921
53.08000 171.184
53.12000 152.746
53.16000 160.273
53.20000 156.796
53.24000 165.359
53.28000 172.102
53.32000 165.039
53.36000 170.879
53.40000 159.656
53.44000 175.288
53.48000 157.495
53.52000 146.200
53.56000 155.352
53.60000 155.600
53.64000 166.270
53.68000 152.517
53.72000 149.151
53.76000 161.086
53.80000 161.613
53.84000 157.076
53.88000 160.333
53.92000 157.873
53.96000 154.106
54.00000 152.474
54.04000 159.515
54.08000 157.953
54.12000 166.537
54.16000 161.235
54.20000 161.449
54.24000 158.172
54.28000 156.478
54.32000 157.400
54.36000 160.640
54.40000 159.605
54.44000 154.034
54.48000 157.596
54.52000 156.496
54.56000 163.461
54.60000 163.093
54.64000 159.087
54.68000 159.107
54.72000 155.369
54.76000 152.516
54.80000 152.209
54.84000 154.567
54.88000 154.403
54.92000 156.852
54.96000 155.177
55.00000 150.720
55.04000 165.154
55.08000 150.776
55.12000 158.240
55.16000 157.808
55.20000 163.791
55.24000 170.241
55.28000 172.301
55.32000 178.355
55.36000 177.015
55.40000 188.669
55.44000 188.987
55.48000 192.199
55.52000 190.174
55.56000 205.633
55.60000 209.394
55.64000 230.583
55.68000 247.548
55.72000 265.808
55.76000 314.855
55.80000 357.586
55.84000 403.284
55.88000 450.662
55.92000 493.271
55.96000 518.991
56.00000 536.017
56.04000 535.775
56.08000 507.048
56.12000 475.724
56.16000 434.926
56.20000 365.554
56.24000 335.046
56.28000 314.892
56.32000 284.292
56.36000 252.975
56.40000 237.039
56.44000 218.400
56.48000 206.878
56.52000 194.914
56.56000 190.345
56.60000 181.790
56.64000 166.760
56.68000 166.866
56.72000 164.914
56.76000 156.605
56.80000 164.392
56.84000 165.802
56.88000 160.868
56.92000 151.794
56.96000 156.437
57.00000 158.073
57.04000 151.355
57.08000 150.248
57.12000 151.861
57.16000 142.889
57.20000 145.889
57.24000 145.564
57.28000 141.386
57.32000 153.427
57.36000 147.165
57.40000 143.431
57.44000 149.522
57.48000 142.975
57.52000 151.808
57.56000 150.376
57.60000 157.230
57.64000 145.307
57.68000 144.813
57.72000 142.257
57.76000 147.873
57.80000 142.963
57.84000 145.703
57.88000 138.514
57.92000 151.655
57.96000 142.660
58.00000 140.898
58.04000 138.974
58.08000 152.313
58.12000 136.466
58.16000 145.946
58.20000 147.347
58.24000 140.267
58.28000 141.122
58.32000 143.786
58.36000 136.524
58.40000 137.374
58.44000 144.756
58.48000 136.004
58.52000 127.170
58.56000 130.403
58.60000 133.926
58.64000 136.413
58.68000 133.082
58.72000 128.158
58.76000 143.681
58.80000 128.542
58.84000 131.807
58.88000 138.347
58.92000 149.306
58.96000 144.718
59.00000 144.374
59.04000 134.037
59.08000 143.227
59.12000 148.987
59.16000 133.340
59.20000 132.264
59.24000 137.436
59.28000 143.121
59.32000 138.659
59.36000 134.809
59.40000 143.261
59.44000 138.483
59.48000 132.226
59.52000 137.173
59.56000 134.489
59.60000 133.642
59.64000 133.308
59.68000 122.640
59.72000 141.690
59.76000 127.346
59.80000 126.374
59.84000 138.330
59.88000 134.558
59.92000 135.499
59.96000 127.150
60.00000 128.006
60.04000 129.369
60.08000 138.517
60.12000 133.796
60.16000 131.839
60.20000 127.118
60.24000 125.490
60.28000 123.917
60.32000 142.903
60.36000 138.950
60.40000 124.487
60.44000 127.671
60.48000 127.500
60.52000 147.627
60.56000 131.804
60.60000 134.930
60.64000 129.036
60.68000 133.434
60.72000 125.641
60.76000 136.942
60.80000 134.387
60.84000 137.234
60.88000 127.643
60.92000 135.082
60.96000 129.731
61.00000 127.132
61.04000 126.824
61.08000 140.851
61.12000 139.998
61.16000 139.726
61.20000 131.187
61.24000 127.102
61.28000 139.758
61.32000 143.006
61.36000 137.673
61.40000 139.375
61.44000 138.779
61.48000 156.432
61.52000 160.553
61.56000 204.118
61.60000 239.614
61.64000 267.594
61.68000 293.964
61.72000 300.928
61.76000 297.755
61.80000 236.047
61.84000 188.922
61.88000 157.118
61.92000 147.528
61.96000 147.642
62.00000 143.458
62.04000 140.823
62.08000 137.158
62.12000 142.880
62.16000 147.409
62.20000 150.634
62.24000 134.100
62.28000 142.824
62.32000 153.515
62.36000 139.914
62.40000 142.623
62.44000 143.108
62.48000 142.025
62.52000 147.042
62.56000 145.148
62.60000 141.434
62.64000 144.660
62.68000 144.661
62.72000 140.271
62.76000 150.943
62.80000 132.428
62.84000 154.965
62.88000 145.860
62.92000 137.841
62.96000 137.974
63.00000 153.905
63.04000 144.788
63.08000 150.213
63.12000 146.457
63.16000 137.854
63.20000 148.883
63.24000 157.353
63.28000 146.909
63.32000 149.547
63.36000 152.038
63.40000 154.642
63.44000 147.290
63.48000 152.276
63.52000 153.094
63.56000 152.771
63.60000 151.458
63.64000 160.061
63.68000 149.081
63.72000 166.192
63.76000 146.337
63.80000 150.110
63.84000 153.036
63.88000 164.092
63.92000 154.513
63.96000 154.899
64.00000 150.563
64.04000 148.587
64.08000 168.219
64.12000 166.700
64.16000 154.593
64.20000 163.979
64.24000 157.373
64.28000 155.384
64.32000 163.359
64.36000 170.798
64.40000 158.898
64.44000 161.018
64.48000 155.113
64.52000 164.609
64.56000 166.839
64.60000 169.882
64.64000 174.070
64.68000 182.392
64.72000 180.184
64.76000 179.869
64.80000 179.632
64.84000 185.074
64.88000 180.900
64.92000 203.098
64.96000 187.560
65.00000 194.033
65.04000 191.611
65.08000 198.406
65.12000 200.086
65.16000 213.053
65.20000 216.940
65.24000 244.096
65.28000 249.585
65.32000 255.091
65.36000 276.823
65.40000 305.207
65.44000 341.526
65.48000 378.475
65.52000 392.484
65.56000 407.145
65.60000 433.272
65.64000 462.812
65.68000 528.742
65.72000 648.682
65.76000 854.725
65.80000 1040.472
65.84000 1196.308
65.88000 1198.433
65.92000 1186.649
65.96000 1033.583
66.00000 758.526
66.04000 514.001
66.08000 392.543
66.12000 356.145
66.16000 318.009
66.20000 312.011
66.24000 319.804
66.28000 373.083
66.32000 396.791
66.36000 439.039
66.40000 458.511
66.44000 478.956
66.48000 448.810
66.52000 436.197
66.56000 377.450
66.60000 359.881
66.64000 345.195
66.68000 329.323
66.72000 321.608
66.76000 306.629
66.80000 322.941
66.84000 320.458
66.88000 342.039
66.92000 341.960
66.96000 346.932
67.00000 353.318
67.04000 366.292
67.08000 378.451
67.12000 371.426
67.16000 372.182
67.20000 388.861
67.24000 385.490
67.28000 393.927
67.32000 397.589
67.36000 405.525
67.40000 395.872
67.44000 414.239
67.48000 427.899
67.52000 441.133
67.56000 456.317
67.60000 448.212
67.64000 457.225
67.68000 453.880
67.72000 507.383
67.76000 494.665
67.80000 502.309
67.84000 486.349
67.88000 519.566
67.92000 498.612
67.96000 540.135
68.00000 537.047
68.04000 545.835
68.08000 551.803
68.12000 577.541
68.16000 570.314
68.20000 612.486
68.24000 627.604
68.28000 629.249
68.32000 655.799
68.36000 679.189
68.40000 716.620
68.44000 738.724
68.48000 795.323
68.52000 807.922
68.56000 896.576
68.60000 1011.922
68.64000 1177.178
68.68000 1370.673
68.72000 1619.646
68.76000 1865.611
68.80000 2101.213
68.84000 2483.251
68.88000 3206.024
68.92000 5384.442
68.96000 12650.398
69.00000 29523.865
69.04000 50030.742
69.08000 61961.523
69.12000 64677.570
69.16000 67073.313
69.20000 67928.984
69.24000 58672.121
69.28000 44570.234
69.32000 36274.797
69.36000 32531.865
69.40000 27679.549
69.44000 17785.035
69.48000 8399.225
69.52000 3776.375
69.56000 2231.425
69.60000 1657.464
69.64000 1393.803
69.68000 1217.296
69.72000 1071.307
69.76000 993.386
69.80000 910.321
69.84000 883.589
69.88000 806.562
69.92000 782.538
69.96000 718.295
70.00000 716.885