File: XRD/22-09-2025 Dep 2/XY Data/BTO_Mapping_Theta2Theta_22-09-2025_001_12_6-235_7-818.xy
20.00000 562.729
20.04000 578.571
20.08000 580.583
20.12000 566.119
20.16000 568.803
20.20000 571.087
20.24000 575.229
20.28000 575.260
20.32000 576.108
20.36000 572.395
20.40000 570.457
20.44000 551.005
20.48000 562.049
20.52000 579.011
20.56000 570.913
20.60000 556.006
20.64000 561.418
20.68000 536.855
20.72000 549.374
20.76000 530.362
20.80000 551.573
20.84000 551.497
20.88000 550.340
20.92000 566.479
20.96000 550.292
21.00000 569.038
21.04000 545.661
21.08000 563.099
21.12000 549.345
21.16000 536.454
21.20000 557.231
21.24000 545.905
21.28000 547.627
21.32000 538.393
21.36000 561.987
21.40000 563.045
21.44000 580.083
21.48000 575.506
21.52000 580.047
21.56000 560.402
21.60000 561.018
21.64000 579.423
21.68000 552.126
21.72000 579.696
21.76000 595.388
21.80000 625.756
21.84000 637.898
21.88000 681.232
21.92000 697.784
21.96000 749.857
22.00000 763.340
22.04000 781.357
22.08000 798.892
22.12000 805.575
22.16000 794.060
22.20000 724.558
22.24000 695.632
22.28000 685.834
22.32000 661.691
22.36000 647.891
22.40000 615.836
22.44000 598.383
22.48000 565.451
22.52000 569.378
22.56000 557.991
22.60000 538.346
22.64000 553.244
22.68000 564.038
22.72000 552.183
22.76000 542.410
22.80000 532.831
22.84000 534.782
22.88000 533.814
22.92000 546.936
22.96000 514.820
23.00000 512.233
23.04000 533.649
23.08000 500.830
23.12000 523.155
23.16000 538.864
23.20000 520.663
23.24000 523.821
23.28000 518.459
23.32000 528.783
23.36000 504.458
23.40000 495.027
23.44000 520.637
23.48000 519.310
23.52000 509.477
23.56000 511.315
23.60000 520.256
23.64000 512.519
23.68000 514.751
23.72000 517.283
23.76000 494.018
23.80000 526.270
23.84000 511.926
23.88000 506.407
23.92000 501.591
23.96000 500.578
24.00000 509.864
24.04000 491.900
24.08000 489.153
24.12000 502.151
24.16000 482.918
24.20000 500.513
24.24000 509.299
24.28000 526.137
24.32000 500.480
24.36000 487.164
24.40000 487.602
24.44000 479.338
24.48000 506.312
24.52000 493.495
24.56000 489.660
24.60000 485.622
24.64000 484.323
24.68000 485.855
24.72000 476.854
24.76000 465.483
24.80000 475.848
24.84000 494.238
24.88000 498.229
24.92000 477.845
24.96000 471.801
25.00000 472.051
25.04000 484.530
25.08000 467.792
25.12000 492.774
25.16000 473.266
25.20000 467.737
25.24000 488.138
25.28000 479.040
25.32000 464.576
25.36000 466.272
25.40000 468.456
25.44000 489.901
25.48000 470.998
25.52000 460.248
25.56000 458.237
25.60000 468.752
25.64000 456.360
25.68000 459.828
25.72000 458.110
25.76000 460.937
25.80000 460.970
25.84000 473.807
25.88000 456.722
25.92000 465.212
25.96000 470.785
26.00000 464.300
26.04000 458.128
26.08000 454.660
26.12000 456.793
26.16000 437.095
26.20000 456.436
26.24000 441.308
26.28000 467.350
26.32000 467.195
26.36000 459.122
26.40000 466.346
26.44000 456.961
26.48000 436.096
26.52000 446.382
26.56000 454.253
26.60000 450.919
26.64000 448.887
26.68000 464.069
26.72000 455.462
26.76000 445.898
26.80000 464.547
26.84000 463.753
26.88000 440.670
26.92000 450.824
26.96000 443.853
27.00000 437.434
27.04000 440.504
27.08000 414.593
27.12000 425.362
27.16000 450.042
27.20000 457.297
27.24000 444.144
27.28000 440.803
27.32000 446.744
27.36000 438.403
27.40000 429.505
27.44000 455.005
27.48000 432.033
27.52000 464.893
27.56000 426.514
27.60000 426.887
27.64000 426.861
27.68000 448.084
27.72000 439.246
27.76000 438.991
27.80000 436.535
27.84000 448.838
27.88000 441.787
27.92000 434.095
27.96000 414.693
28.00000 423.867
28.04000 441.951
28.08000 451.113
28.12000 432.786
28.16000 424.618
28.20000 431.596
28.24000 447.459
28.28000 448.654
28.32000 442.915
28.36000 429.168
28.40000 429.630
28.44000 430.565
28.48000 428.463
28.52000 431.074
28.56000 416.439
28.60000 419.775
28.64000 425.689
28.68000 424.208
28.72000 435.161
28.76000 422.832
28.80000 437.127
28.84000 419.692
28.88000 412.403
28.92000 423.651
28.96000 429.751
29.00000 417.622
29.04000 406.162
29.08000 408.908
29.12000 410.205
29.16000 434.517
29.20000 417.551
29.24000 420.596
29.28000 436.146
29.32000 412.559
29.36000 418.565
29.40000 418.687
29.44000 412.416
29.48000 424.283
29.52000 423.663
29.56000 425.144
29.60000 417.734
29.64000 405.071
29.68000 416.395
29.72000 423.789
29.76000 433.897
29.80000 437.822
29.84000 424.713
29.88000 446.868
29.92000 424.469
29.96000 454.662
30.00000 443.297
30.04000 454.890
30.08000 452.147
30.12000 443.533
30.16000 461.006
30.20000 450.535
30.24000 451.175
30.28000 454.516
30.32000 464.404
30.36000 449.071
30.40000 441.914
30.44000 441.656
30.48000 439.698
30.52000 454.536
30.56000 448.899
30.60000 447.236
30.64000 450.580
30.68000 445.106
30.72000 466.671
30.76000 463.520
30.80000 474.141
30.84000 510.958
30.88000 505.248
30.92000 549.374
30.96000 577.064
31.00000 603.686
31.04000 717.747
31.08000 837.841
31.12000 998.106
31.16000 1244.951
31.20000 1620.255
31.24000 2082.687
31.28000 2555.927
31.32000 3017.923
31.36000 3342.883
31.40000 3421.138
31.44000 3328.048
31.48000 3024.126
31.52000 2548.309
31.56000 2092.999
31.60000 1648.381
31.64000 1267.321
31.68000 1015.111
31.72000 860.450
31.76000 721.927
31.80000 666.437
31.84000 592.117
31.88000 530.262
31.92000 502.611
31.96000 470.659
32.00000 435.055
32.04000 433.992
32.08000 435.806
32.12000 430.526
32.16000 431.282
32.20000 402.400
32.24000 418.818
32.28000 406.970
32.32000 403.263
32.36000 412.411
32.40000 388.451
32.44000 396.966
32.48000 392.057
32.52000 387.113
32.56000 398.186
32.60000 393.217
32.64000 380.138
32.68000 383.702
32.72000 394.478
32.76000 392.178
32.80000 387.021
32.84000 399.613
32.88000 423.209
32.92000 410.812
32.96000 399.630
33.00000 399.549
33.04000 391.038
33.08000 382.757
33.12000 364.734
33.16000 368.320
33.20000 353.536
33.24000 349.726
33.28000 362.786
33.32000 356.158
33.36000 368.534
33.40000 361.376
33.44000 350.069
33.48000 346.107
33.52000 343.785
33.56000 352.323
33.60000 358.928
33.64000 347.284
33.68000 339.848
33.72000 327.437
33.76000 338.418
33.80000 333.137
33.84000 354.644
33.88000 343.880
33.92000 345.982
33.96000 362.038
34.00000 353.742
34.04000 343.486
34.08000 347.342
34.12000 345.913
34.16000 333.241
34.20000 356.711
34.24000 342.468
34.28000 339.954
34.32000 327.762
34.36000 338.791
34.40000 317.656
34.44000 339.436
34.48000 334.270
34.52000 347.422
34.56000 329.118
34.60000 332.638
34.64000 337.445
34.68000 328.184
34.72000 322.073
34.76000 318.831
34.80000 324.965
34.84000 344.593
34.88000 328.825
34.92000 310.350
34.96000 315.693
35.00000 330.655
35.04000 334.293
35.08000 320.418
35.12000 315.758
35.16000 310.298
35.20000 322.534
35.24000 322.505
35.28000 318.714
35.32000 312.557
35.36000 312.703
35.40000 308.589
35.44000 315.640
35.48000 310.593
35.52000 321.048
35.56000 309.532
35.60000 311.219
35.64000 300.596
35.68000 302.346
35.72000 307.340
35.76000 307.051
35.80000 295.185
35.84000 312.238
35.88000 308.783
35.92000 304.306
35.96000 303.919
36.00000 314.145
36.04000 303.335
36.08000 303.469
36.12000 298.930
36.16000 305.034
36.20000 307.648
36.24000 307.397
36.28000 307.920
36.32000 296.736
36.36000 300.206
36.40000 310.008
36.44000 299.616
36.48000 320.922
36.52000 301.212
36.56000 296.875
36.60000 284.492
36.64000 281.048
36.68000 304.321
36.72000 289.300
36.76000 300.658
36.80000 300.395
36.84000 303.644
36.88000 304.479
36.92000 302.662
36.96000 292.354
37.00000 295.863
37.04000 305.770
37.08000 294.204
37.12000 293.837
37.16000 297.762
37.20000 282.364
37.24000 328.055
37.28000 309.649
37.32000 296.238
37.36000 296.933
37.40000 303.598
37.44000 296.599
37.48000 295.915
37.52000 301.820
37.56000 287.256
37.60000 290.752
37.64000 295.692
37.68000 304.739
37.72000 288.915
37.76000 303.695
37.80000 287.425
37.84000 293.778
37.88000 287.349
37.92000 294.827
37.96000 308.097
38.00000 300.400
38.04000 289.867
38.08000 296.422
38.12000 308.968
38.16000 304.206
38.20000 323.209
38.24000 315.277
38.28000 318.642
38.32000 360.223
38.36000 353.891
38.40000 381.370
38.44000 427.407
38.48000 474.128
38.52000 539.464
38.56000 649.869
38.60000 785.502
38.64000 891.036
38.68000 953.410
38.72000 1029.527
38.76000 1013.294
38.80000 957.012
38.84000 833.999
38.88000 721.896
38.92000 612.867
38.96000 519.772
39.00000 424.285
39.04000 392.405
39.08000 354.145
39.12000 344.299
39.16000 316.701
39.20000 302.719
39.24000 302.338
39.28000 297.001
39.32000 301.064
39.36000 297.139
39.40000 293.814
39.44000 279.570
39.48000 285.014
39.52000 275.720
39.56000 277.351
39.60000 275.979
39.64000 266.864
39.68000 272.498
39.72000 268.734
39.76000 280.658
39.80000 272.613
39.84000 268.643
39.88000 277.796
39.92000 266.170
39.96000 260.321
40.00000 281.784
40.04000 263.178
40.08000 265.542
40.12000 258.948
40.16000 266.989
40.20000 273.205
40.24000 259.193
40.28000 265.427
40.32000 269.133
40.36000 259.067
40.40000 264.332
40.44000 264.680
40.48000 264.116
40.52000 262.622
40.56000 256.117
40.60000 262.334
40.64000 260.268
40.68000 248.574
40.72000 262.051
40.76000 255.838
40.80000 246.693
40.84000 249.623
40.88000 259.438
40.92000 244.738
40.96000 254.131
41.00000 244.355
41.04000 258.181
41.08000 252.908
41.12000 244.754
41.16000 250.523
41.20000 244.692
41.24000 248.462
41.28000 244.305
41.32000 254.752
41.36000 244.386
41.40000 260.535
41.44000 250.795
41.48000 237.363
41.52000 249.827
41.56000 255.409
41.60000 242.407
41.64000 244.279
41.68000 233.408
41.72000 245.060
41.76000 239.689
41.80000 247.827
41.84000 242.475
41.88000 237.552
41.92000 232.597
41.96000 247.565
42.00000 239.422
42.04000 240.520
42.08000 240.631
42.12000 250.628
42.16000 238.333
42.20000 236.982
42.24000 250.626
42.28000 234.190
42.32000 239.716
42.36000 224.558
42.40000 237.611
42.44000 244.030
42.48000 237.493
42.52000 245.557
42.56000 243.617
42.60000 240.139
42.64000 227.657
42.68000 250.632
42.72000 254.185
42.76000 242.908
42.80000 224.914
42.84000 234.437
42.88000 234.035
42.92000 236.044
42.96000 242.453
43.00000 240.761
43.04000 233.761
43.08000 244.402
43.12000 241.481
43.16000 232.176
43.20000 232.047
43.24000 227.032
43.28000 242.826
43.32000 241.312
43.36000 237.398
43.40000 205.090
43.44000 224.504
43.48000 222.781
43.52000 219.277
43.56000 215.309
43.60000 214.111
43.64000 225.472
43.68000 226.730
43.72000 226.308
43.76000 234.298
43.80000 234.494
43.84000 212.556
43.88000 223.254
43.92000 224.053
43.96000 230.881
44.00000 225.415
44.04000 224.812
44.08000 228.435
44.12000 226.731
44.16000 235.839
44.20000 211.559
44.24000 228.112
44.28000 219.000
44.32000 226.561
44.36000 237.395
44.40000 232.158
44.44000 229.004
44.48000 227.120
44.52000 235.885
44.56000 248.376
44.60000 253.659
44.64000 245.479
44.68000 247.545
44.72000 267.840
44.76000 279.603
44.80000 278.467
44.84000 319.045
44.88000 338.857
44.92000 349.138
44.96000 393.064
45.00000 392.047
45.04000 412.524
45.08000 417.889
45.12000 410.949
45.16000 418.624
45.20000 396.171
45.24000 378.217
45.28000 376.432
45.32000 347.016
45.36000 341.539
45.40000 307.749
45.44000 314.498
45.48000 296.140
45.52000 300.049
45.56000 289.628
45.60000 262.320
45.64000 263.828
45.68000 258.209
45.72000 256.494
45.76000 246.614
45.80000 231.001
45.84000 237.793
45.88000 240.005
45.92000 238.542
45.96000 223.264
46.00000 214.478
46.04000 212.815
46.08000 219.311
46.12000 218.356
46.16000 214.731
46.20000 208.236
46.24000 205.841
46.28000 204.695
46.32000 205.740
46.36000 203.154
46.40000 205.772
46.44000 206.847
46.48000 206.287
46.52000 218.015
46.56000 192.747
46.60000 204.123
46.64000 201.088
46.68000 192.341
46.72000 192.632
46.76000 192.233
46.80000 210.333
46.84000 192.926
46.88000 204.096
46.92000 185.790
46.96000 196.653
47.00000 197.970
47.04000 211.890
47.08000 193.885
47.12000 191.140
47.16000 196.927
47.20000 190.035
47.24000 190.702
47.28000 197.198
47.32000 195.435
47.36000 183.769
47.40000 188.412
47.44000 183.656
47.48000 173.277
47.52000 192.324
47.56000 180.092
47.60000 187.292
47.64000 189.496
47.68000 186.954
47.72000 184.440
47.76000 187.140
47.80000 176.057
47.84000 188.062
47.88000 202.084
47.92000 195.066
47.96000 188.437
48.00000 191.880
48.04000 177.985
48.08000 177.709
48.12000 179.271
48.16000 188.978
48.20000 188.385
48.24000 182.554
48.28000 191.118
48.32000 187.981
48.36000 191.040
48.40000 175.484
48.44000 182.450
48.48000 180.230
48.52000 186.407
48.56000 185.500
48.60000 179.730
48.64000 177.895
48.68000 176.227
48.72000 178.825
48.76000 184.178
48.80000 182.770
48.84000 183.338
48.88000 179.333
48.92000 171.395
48.96000 175.574
49.00000 171.476
49.04000 181.625
49.08000 184.377
49.12000 174.404
49.16000 175.989
49.20000 178.119
49.24000 172.924
49.28000 182.607
49.32000 179.544
49.36000 183.237
49.40000 181.587
49.44000 183.592
49.48000 168.532
49.52000 179.624
49.56000 172.800
49.60000 175.089
49.64000 184.567
49.68000 185.893
49.72000 174.748
49.76000 180.506
49.80000 183.668
49.84000 166.728
49.88000 185.271
49.92000 183.481
49.96000 176.776
50.00000 174.818
50.04000 174.254
50.08000 173.134
50.12000 181.217
50.16000 173.470
50.20000 183.186
50.24000 172.819
50.28000 177.998
50.32000 187.239
50.36000 189.816
50.40000 201.099
50.44000 198.042
50.48000 209.173
50.52000 217.915
50.56000 229.774
50.60000 226.215
50.64000 255.589
50.68000 249.367
50.72000 269.322
50.76000 270.122
50.80000 261.172
50.84000 268.529
50.88000 238.107
50.92000 221.818
50.96000 220.535
51.00000 198.784
51.04000 198.350
51.08000 199.366
51.12000 188.107
51.16000 193.894
51.20000 190.842
51.24000 181.717
51.28000 178.734
51.32000 179.116
51.36000 174.237
51.40000 170.506
51.44000 169.845
51.48000 175.251
51.52000 167.592
51.56000 173.649
51.60000 173.370
51.64000 173.641
51.68000 166.647
51.72000 159.547
51.76000 177.197
51.80000 165.580
51.84000 168.590
51.88000 158.495
51.92000 160.341
51.96000 174.265
52.00000 156.087
52.04000 157.497
52.08000 164.911
52.12000 174.988
52.16000 158.555
52.20000 156.274
52.24000 161.073
52.28000 164.479
52.32000 149.845
52.36000 153.858
52.40000 164.509
52.44000 162.636
52.48000 149.501
52.52000 166.550
52.56000 161.776
52.60000 164.359
52.64000 152.148
52.68000 155.358
52.72000 162.328
52.76000 157.365
52.80000 160.167
52.84000 161.456
52.88000 146.910
52.92000 156.587
52.96000 157.533
53.00000 158.790
53.04000 164.003
53.08000 162.312
53.12000 171.644
53.16000 155.367
53.20000 145.103
53.24000 154.660
53.28000 160.255
53.32000 151.772
53.36000 159.461
53.40000 161.612
53.44000 161.606
53.48000 163.777
53.52000 157.950
53.56000 157.583
53.60000 157.329
53.64000 159.355
53.68000 154.084
53.72000 154.062
53.76000 160.745
53.80000 169.397
53.84000 150.272
53.88000 153.894
53.92000 166.386
53.96000 151.752
54.00000 157.040
54.04000 158.458
54.08000 163.598
54.12000 162.196
54.16000 155.211
54.20000 147.658
54.24000 165.182
54.28000 161.977
54.32000 153.794
54.36000 142.558
54.40000 152.766
54.44000 147.441
54.48000 156.551
54.52000 159.837
54.56000 161.055
54.60000 153.790
54.64000 165.284
54.68000 159.076
54.72000 151.689
54.76000 154.194
54.80000 162.689
54.84000 162.844
54.88000 160.783
54.92000 150.936
54.96000 163.451
55.00000 163.256
55.04000 156.930
55.08000 152.707
55.12000 172.712
55.16000 168.399
55.20000 176.680
55.24000 163.134
55.28000 164.935
55.32000 171.580
55.36000 182.323
55.40000 175.378
55.44000 188.945
55.48000 183.327
55.52000 204.965
55.56000 216.099
55.60000 233.104
55.64000 249.185
55.68000 280.832
55.72000 289.910
55.76000 347.475
55.80000 393.013
55.84000 452.114
55.88000 497.660
55.92000 513.628
55.96000 550.726
56.00000 553.834
56.04000 532.894
56.08000 498.767
56.12000 441.905
56.16000 416.320
56.20000 371.573
56.24000 331.400
56.28000 284.284
56.32000 271.514
56.36000 263.920
56.40000 232.464
56.44000 225.674
56.48000 206.119
56.52000 190.145
56.56000 182.331
56.60000 182.880
56.64000 174.010
56.68000 172.311
56.72000 174.259
56.76000 160.701
56.80000 159.015
56.84000 162.218
56.88000 164.935
56.92000 157.498
56.96000 145.916
57.00000 146.133
57.04000 151.710
57.08000 171.697
57.12000 158.042
57.16000 155.272
57.20000 136.539
57.24000 140.142
57.28000 146.997
57.32000 154.354
57.36000 154.082
57.40000 141.156
57.44000 142.609
57.48000 149.300
57.52000 143.883
57.56000 145.294
57.60000 138.180
57.64000 148.502
57.68000 158.077
57.72000 141.117
57.76000 142.369
57.80000 150.450
57.84000 134.564
57.88000 140.750
57.92000 145.726
57.96000 141.937
58.00000 146.218
58.04000 140.800
58.08000 146.644
58.12000 144.756
58.16000 132.777
58.20000 143.552
58.24000 140.201
58.28000 139.757
58.32000 147.660
58.36000 138.123
58.40000 136.582
58.44000 141.204
58.48000 134.624
58.52000 127.321
58.56000 138.207
58.60000 130.238
58.64000 139.049
58.68000 129.676
58.72000 129.212
58.76000 120.424
58.80000 135.997
58.84000 126.682
58.88000 127.266
58.92000 132.750
58.96000 143.560
59.00000 139.100
59.04000 125.344
59.08000 135.984
59.12000 139.392
59.16000 129.623
59.20000 142.711
59.24000 132.028
59.28000 130.905
59.32000 131.757
59.36000 138.717
59.40000 141.099
59.44000 131.506
59.48000 135.505
59.52000 133.434
59.56000 125.035
59.60000 132.203
59.64000 137.139
59.68000 135.102
59.72000 137.795
59.76000 131.960
59.80000 143.621
59.84000 134.443
59.88000 139.897
59.92000 137.994
59.96000 130.293
60.00000 140.733
60.04000 133.849
60.08000 129.237
60.12000 129.669
60.16000 130.745
60.20000 138.905
60.24000 125.763
60.28000 130.528
60.32000 133.644
60.36000 138.765
60.40000 126.481
60.44000 135.105
60.48000 125.183
60.52000 130.163
60.56000 150.051
60.60000 139.202
60.64000 133.203
60.68000 138.680
60.72000 130.717
60.76000 139.469
60.80000 139.261
60.84000 136.438
60.88000 138.090
60.92000 134.143
60.96000 133.009
61.00000 127.608
61.04000 128.784
61.08000 146.674
61.12000 146.674
61.16000 132.621
61.20000 136.958
61.24000 135.134
61.28000 136.794
61.32000 143.221
61.36000 138.149
61.40000 144.856
61.44000 138.985
61.48000 147.461
61.52000 169.978
61.56000 237.770
61.60000 267.413
61.64000 300.754
61.68000 318.190
61.72000 305.169
61.76000 294.620
61.80000 250.411
61.84000 191.743
61.88000 162.521
61.92000 153.912
61.96000 142.131
62.00000 150.680
62.04000 148.791
62.08000 135.837
62.12000 147.213
62.16000 142.491
62.20000 137.967
62.24000 143.864
62.28000 139.085
62.32000 137.856
62.36000 145.672
62.40000 137.050
62.44000 153.822
62.48000 147.951
62.52000 134.597
62.56000 146.041
62.60000 145.498
62.64000 146.060
62.68000 141.653
62.72000 145.511
62.76000 141.655
62.80000 145.210
62.84000 136.380
62.88000 147.246
62.92000 143.454
62.96000 143.604
63.00000 133.946
63.04000 137.602
63.08000 158.235
63.12000 148.897
63.16000 148.295
63.20000 156.226
63.24000 135.572
63.28000 145.909
63.32000 144.653
63.36000 150.932
63.40000 143.519
63.44000 148.267
63.48000 148.153
63.52000 152.487
63.56000 151.559
63.60000 157.192
63.64000 151.915
63.68000 145.106
63.72000 159.004
63.76000 153.251
63.80000 156.781
63.84000 160.402
63.88000 156.713
63.92000 148.508
63.96000 147.160
64.00000 149.279
64.04000 150.513
64.08000 150.000
64.12000 162.950
64.16000 149.011
64.20000 165.768
64.24000 154.639
64.28000 161.670
64.32000 174.822
64.36000 173.177
64.40000 153.395
64.44000 171.228
64.48000 171.754
64.52000 163.919
64.56000 180.128
64.60000 183.317
64.64000 172.352
64.68000 185.104
64.72000 182.542
64.76000 184.734
64.80000 185.480
64.84000 178.687
64.88000 175.616
64.92000 179.333
64.96000 196.728
65.00000 192.899
65.04000 208.207
65.08000 198.957
65.12000 207.974
65.16000 219.639
65.20000 229.769
65.24000 249.676
65.28000 258.685
65.32000 264.614
65.36000 299.396
65.40000 326.702
65.44000 333.300
65.48000 366.941
65.52000 394.553
65.56000 443.431
65.60000 459.306
65.64000 489.199
65.68000 582.461
65.72000 739.380
65.76000 985.788
65.80000 1192.716
65.84000 1288.061
65.88000 1317.347
65.92000 1214.622
65.96000 1103.682
66.00000 762.781
66.04000 517.484
66.08000 402.216
66.12000 373.525
66.16000 341.175
66.20000 326.713
66.24000 357.513
66.28000 385.577
66.32000 454.420
66.36000 486.148
66.40000 491.623
66.44000 492.843
66.48000 504.940
66.52000 449.177
66.56000 392.547
66.60000 358.449
66.64000 339.125
66.68000 327.326
66.72000 348.984
66.76000 340.026
66.80000 338.490
66.84000 343.948
66.88000 351.831
66.92000 347.103
66.96000 359.133
67.00000 358.758
67.04000 351.717
67.08000 388.271
67.12000 370.037
67.16000 383.721
67.20000 389.626
67.24000 401.488
67.28000 397.978
67.32000 406.189
67.36000 410.731
67.40000 435.219
67.44000 420.023
67.48000 426.600
67.52000 451.237
67.56000 470.319
67.60000 461.513
67.64000 473.413
67.68000 485.691
67.72000 490.830
67.76000 505.893
67.80000 508.692
67.84000 539.144
67.88000 568.228
67.92000 543.115
67.96000 569.819
68.00000 573.535
68.04000 580.253
68.08000 616.337
68.12000 603.124
68.16000 622.490
68.20000 663.326
68.24000 655.094
68.28000 694.235
68.32000 716.107
68.36000 717.708
68.40000 751.251
68.44000 815.531
68.48000 833.949
68.52000 886.829
68.56000 986.817
68.60000 1097.631
68.64000 1288.108
68.68000 1553.831
68.72000 1798.772
68.76000 2071.759
68.80000 2452.389
68.84000 2938.168
68.88000 3939.127
68.92000 7301.845
68.96000 17657.885
69.00000 38282.074
69.04000 59373.914
69.08000 69878.383
69.12000 72717.930
69.16000 75789.477
69.20000 74922.234
69.24000 62262.207
69.28000 47185.418
69.32000 39358.871
69.36000 35178.262
69.40000 28835.914
69.44000 17313.719
69.48000 7963.609
69.52000 3663.726
69.56000 2270.835
69.60000 1748.260
69.64000 1455.548
69.68000 1246.638
69.72000 1116.968
69.76000 1005.490
69.80000 976.413
69.84000 874.824
69.88000 848.086
69.92000 773.674
69.96000 756.393
70.00000 743.016