File: XRD/22-09-2025 Dep 2/XY Data/BTO_Mapping_Theta2Theta_22-09-2025_001_05_40-000_0-000.xy
20.00000 546.789
20.04000 560.031
20.08000 571.834
20.12000 549.322
20.16000 576.909
20.20000 566.681
20.24000 553.440
20.28000 552.590
20.32000 555.537
20.36000 556.472
20.40000 554.335
20.44000 552.973
20.48000 567.153
20.52000 564.967
20.56000 549.322
20.60000 541.982
20.64000 550.694
20.68000 540.350
20.72000 532.329
20.76000 550.170
20.80000 569.525
20.84000 554.049
20.88000 551.741
20.92000 546.967
20.96000 555.340
21.00000 574.362
21.04000 549.364
21.08000 559.793
21.12000 563.263
21.16000 561.979
21.20000 552.890
21.24000 551.493
21.28000 553.952
21.32000 555.895
21.36000 546.304
21.40000 548.187
21.44000 570.736
21.48000 544.431
21.52000 546.949
21.56000 530.894
21.60000 547.442
21.64000 545.586
21.68000 544.160
21.72000 544.632
21.76000 560.995
21.80000 545.609
21.84000 571.099
21.88000 595.172
21.92000 595.397
21.96000 613.334
22.00000 630.462
22.04000 644.856
22.08000 645.492
22.12000 665.860
22.16000 659.877
22.20000 651.497
22.24000 640.942
22.28000 617.966
22.32000 621.280
22.36000 608.277
22.40000 591.428
22.44000 588.013
22.48000 568.566
22.52000 544.146
22.56000 534.573
22.60000 530.124
22.64000 531.586
22.68000 532.912
22.72000 539.056
22.76000 501.434
22.80000 497.737
22.84000 517.905
22.88000 533.127
22.92000 514.360
22.96000 512.396
23.00000 528.708
23.04000 499.881
23.08000 518.737
23.12000 521.717
23.16000 514.034
23.20000 525.327
23.24000 483.992
23.28000 515.294
23.32000 519.919
23.36000 513.675
23.40000 505.633
23.44000 496.715
23.48000 510.427
23.52000 500.679
23.56000 509.168
23.60000 510.302
23.64000 513.595
23.68000 521.756
23.72000 516.921
23.76000 531.762
23.80000 512.575
23.84000 537.067
23.88000 531.322
23.92000 533.447
23.96000 534.998
24.00000 523.555
24.04000 528.864
24.08000 537.614
24.12000 520.401
24.16000 516.577
24.20000 503.318
24.24000 514.369
24.28000 528.901
24.32000 498.891
24.36000 499.762
24.40000 495.851
24.44000 468.678
24.48000 498.810
24.52000 474.711
24.56000 493.752
24.60000 487.207
24.64000 494.310
24.68000 485.862
24.72000 469.538
24.76000 487.407
24.80000 467.275
24.84000 482.022
24.88000 473.320
24.92000 484.375
24.96000 487.208
25.00000 490.034
25.04000 472.793
25.08000 470.126
25.12000 481.641
25.16000 483.809
25.20000 484.401
25.24000 488.978
25.28000 457.355
25.32000 466.957
25.36000 491.116
25.40000 448.643
25.44000 460.339
25.48000 460.479
25.52000 484.062
25.56000 452.958
25.60000 461.521
25.64000 455.290
25.68000 462.561
25.72000 463.128
25.76000 459.435
25.80000 451.825
25.84000 458.951
25.88000 468.009
25.92000 452.325
25.96000 454.893
26.00000 458.301
26.04000 463.113
26.08000 459.160
26.12000 451.761
26.16000 444.407
26.20000 462.336
26.24000 443.927
26.28000 444.891
26.32000 455.010
26.36000 443.265
26.40000 465.682
26.44000 455.774
26.48000 448.170
26.52000 444.146
26.56000 462.849
26.60000 446.346
26.64000 440.161
26.68000 461.986
26.72000 441.225
26.76000 455.573
26.80000 460.240
26.84000 442.848
26.88000 458.560
26.92000 442.578
26.96000 445.089
27.00000 419.754
27.04000 441.139
27.08000 436.757
27.12000 431.129
27.16000 427.879
27.20000 425.874
27.24000 429.220
27.28000 425.824
27.32000 439.393
27.36000 410.007
27.40000 435.466
27.44000 431.298
27.48000 433.438
27.52000 442.852
27.56000 432.641
27.60000 442.112
27.64000 434.826
27.68000 436.910
27.72000 445.193
27.76000 426.651
27.80000 435.175
27.84000 411.927
27.88000 420.770
27.92000 430.960
27.96000 433.994
28.00000 433.790
28.04000 424.181
28.08000 431.609
28.12000 440.304
28.16000 416.215
28.20000 427.766
28.24000 433.140
28.28000 420.137
28.32000 421.738
28.36000 408.406
28.40000 412.352
28.44000 411.027
28.48000 425.206
28.52000 421.443
28.56000 429.393
28.60000 431.190
28.64000 429.331
28.68000 440.254
28.72000 414.194
28.76000 392.734
28.80000 424.974
28.84000 408.129
28.88000 402.688
28.92000 438.009
28.96000 430.783
29.00000 419.752
29.04000 417.014
29.08000 419.913
29.12000 412.728
29.16000 409.899
29.20000 412.133
29.24000 406.116
29.28000 406.417
29.32000 405.234
29.36000 406.611
29.40000 424.888
29.44000 418.577
29.48000 425.453
29.52000 398.918
29.56000 415.982
29.60000 429.573
29.64000 407.336
29.68000 420.453
29.72000 413.749
29.76000 415.106
29.80000 400.943
29.84000 412.668
29.88000 414.879
29.92000 420.103
29.96000 427.256
30.00000 404.794
30.04000 404.351
30.08000 431.845
30.12000 437.050
30.16000 417.557
30.20000 416.486
30.24000 419.468
30.28000 442.508
30.32000 429.489
30.36000 432.255
30.40000 407.092
30.44000 413.047
30.48000 418.378
30.52000 434.168
30.56000 418.419
30.60000 425.691
30.64000 432.648
30.68000 424.091
30.72000 424.519
30.76000 457.798
30.80000 437.718
30.84000 431.534
30.88000 452.409
30.92000 459.079
30.96000 489.696
31.00000 498.967
31.04000 540.418
31.08000 588.311
31.12000 646.464
31.16000 728.934
31.20000 885.376
31.24000 1064.623
31.28000 1270.523
31.32000 1566.852
31.36000 1755.348
31.40000 1978.835
31.44000 1966.660
31.48000 1876.105
31.52000 1733.123
31.56000 1493.829
31.60000 1285.138
31.64000 1064.086
31.68000 871.097
31.72000 739.764
31.76000 639.224
31.80000 595.427
31.84000 546.950
31.88000 498.427
31.92000 475.772
31.96000 464.634
32.00000 442.690
32.04000 431.829
32.08000 415.227
32.12000 421.447
32.16000 400.774
32.20000 416.370
32.24000 397.989
32.28000 398.767
32.32000 398.174
32.36000 392.915
32.40000 377.633
32.44000 395.717
32.48000 394.376
32.52000 380.437
32.56000 368.721
32.60000 395.773
32.64000 364.702
32.68000 368.886
32.72000 365.407
32.76000 367.182
32.80000 374.426
32.84000 374.676
32.88000 387.250
32.92000 392.336
32.96000 388.790
33.00000 377.479
33.04000 369.471
33.08000 351.058
33.12000 354.106
33.16000 366.780
33.20000 361.060
33.24000 340.315
33.28000 348.078
33.32000 338.519
33.36000 368.576
33.40000 344.055
33.44000 343.682
33.48000 351.069
33.52000 336.758
33.56000 341.485
33.60000 328.967
33.64000 342.871
33.68000 336.501
33.72000 330.016
33.76000 328.037
33.80000 340.435
33.84000 331.066
33.88000 348.420
33.92000 322.414
33.96000 330.804
34.00000 327.822
34.04000 330.309
34.08000 329.494
34.12000 333.328
34.16000 353.749
34.20000 342.250
34.24000 340.104
34.28000 336.823
34.32000 340.820
34.36000 345.662
34.40000 335.101
34.44000 339.952
34.48000 333.016
34.52000 330.518
34.56000 330.011
34.60000 334.312
34.64000 326.307
34.68000 337.481
34.72000 335.365
34.76000 335.623
34.80000 315.713
34.84000 318.465
34.88000 320.119
34.92000 333.772
34.96000 313.076
35.00000 317.688
35.04000 316.441
35.08000 324.820
35.12000 307.074
35.16000 303.645
35.20000 316.576
35.24000 321.152
35.28000 314.603
35.32000 321.822
35.36000 314.168
35.40000 308.505
35.44000 306.439
35.48000 308.420
35.52000 308.855
35.56000 307.175
35.60000 304.940
35.64000 300.585
35.68000 315.884
35.72000 313.739
35.76000 316.749
35.80000 301.690
35.84000 303.682
35.88000 297.982
35.92000 293.996
35.96000 301.777
36.00000 306.600
36.04000 306.621
36.08000 294.893
36.12000 317.513
36.16000 295.524
36.20000 331.463
36.24000 286.852
36.28000 312.037
36.32000 303.885
36.36000 302.067
36.40000 298.477
36.44000 298.040
36.48000 300.783
36.52000 293.504
36.56000 303.784
36.60000 295.886
36.64000 289.612
36.68000 293.532
36.72000 294.535
36.76000 304.273
36.80000 292.254
36.84000 298.442
36.88000 278.758
36.92000 312.167
36.96000 295.524
37.00000 305.213
37.04000 285.050
37.08000 296.909
37.12000 284.188
37.16000 298.624
37.20000 301.204
37.24000 290.944
37.28000 288.007
37.32000 290.135
37.36000 301.058
37.40000 293.588
37.44000 293.105
37.48000 286.856
37.52000 294.107
37.56000 286.958
37.60000 283.037
37.64000 282.659
37.68000 281.083
37.72000 288.165
37.76000 295.516
37.80000 290.044
37.84000 271.978
37.88000 282.751
37.92000 290.493
37.96000 281.074
38.00000 295.328
38.04000 282.433
38.08000 280.684
38.12000 274.741
38.16000 293.214
38.20000 291.779
38.24000 303.663
38.28000 299.460
38.32000 303.980
38.36000 305.774
38.40000 324.501
38.44000 337.244
38.48000 368.099
38.52000 394.950
38.56000 465.295
38.60000 565.506
38.64000 680.243
38.68000 803.069
38.72000 904.473
38.76000 999.701
38.80000 1002.633
38.84000 951.388
38.88000 878.389
38.92000 741.447
38.96000 641.446
39.00000 524.290
39.04000 414.838
39.08000 379.645
39.12000 341.150
39.16000 321.392
39.20000 305.567
39.24000 295.282
39.28000 286.868
39.32000 284.923
39.36000 273.807
39.40000 270.072
39.44000 275.917
39.48000 272.021
39.52000 283.157
39.56000 268.577
39.60000 277.867
39.64000 255.920
39.68000 256.964
39.72000 266.131
39.76000 258.560
39.80000 270.369
39.84000 268.790
39.88000 257.979
39.92000 260.293
39.96000 261.216
40.00000 253.040
40.04000 255.171
40.08000 257.310
40.12000 254.192
40.16000 256.224
40.20000 260.372
40.24000 255.436
40.28000 256.140
40.32000 249.965
40.36000 255.711
40.40000 252.989
40.44000 243.151
40.48000 245.011
40.52000 262.320
40.56000 259.939
40.60000 240.001
40.64000 239.988
40.68000 248.464
40.72000 231.091
40.76000 232.483
40.80000 253.330
40.84000 255.758
40.88000 238.769
40.92000 241.941
40.96000 246.828
41.00000 248.202
41.04000 249.320
41.08000 245.521
41.12000 255.601
41.16000 238.282
41.20000 256.127
41.24000 252.961
41.28000 249.396
41.32000 243.316
41.36000 239.387
41.40000 238.841
41.44000 235.830
41.48000 237.068
41.52000 239.175
41.56000 245.267
41.60000 223.412
41.64000 254.471
41.68000 240.194
41.72000 247.098
41.76000 241.830
41.80000 237.439
41.84000 238.446
41.88000 247.260
41.92000 240.698
41.96000 237.533
42.00000 231.389
42.04000 243.977
42.08000 235.563
42.12000 249.705
42.16000 237.279
42.20000 243.084
42.24000 238.937
42.28000 245.934
42.32000 238.400
42.36000 242.606
42.40000 227.025
42.44000 240.791
42.48000 238.401
42.52000 228.722
42.56000 235.170
42.60000 233.368
42.64000 219.337
42.68000 237.429
42.72000 235.482
42.76000 231.463
42.80000 235.643
42.84000 221.489
42.88000 232.660
42.92000 226.811
42.96000 228.861
43.00000 232.421
43.04000 223.884
43.08000 238.679
43.12000 228.401
43.16000 215.177
43.20000 218.990
43.24000 225.637
43.28000 235.787
43.32000 223.664
43.36000 233.155
43.40000 229.582
43.44000 219.200
43.48000 227.170
43.52000 219.587
43.56000 217.325
43.60000 210.894
43.64000 226.426
43.68000 219.181
43.72000 229.000
43.76000 221.608
43.80000 221.501
43.84000 222.764
43.88000 213.849
43.92000 227.263
43.96000 214.187
44.00000 219.068
44.04000 224.291
44.08000 213.880
44.12000 215.405
44.16000 214.477
44.20000 227.623
44.24000 219.995
44.28000 226.108
44.32000 224.786
44.36000 214.822
44.40000 230.308
44.44000 228.762
44.48000 219.696
44.52000 218.128
44.56000 218.427
44.60000 223.474
44.64000 219.382
44.68000 231.436
44.72000 240.917
44.76000 232.189
44.80000 240.856
44.84000 234.322
44.88000 251.001
44.92000 265.173
44.96000 252.089
45.00000 265.687
45.04000 273.549
45.08000 290.612
45.12000 300.292
45.16000 299.603
45.20000 289.174
45.24000 290.035
45.28000 285.828
45.32000 278.691
45.36000 269.120
45.40000 276.219
45.44000 270.267
45.48000 246.809
45.52000 269.457
45.56000 259.191
45.60000 245.968
45.64000 251.605
45.68000 239.353
45.72000 244.820
45.76000 222.735
45.80000 223.945
45.84000 224.720
45.88000 222.038
45.92000 228.123
45.96000 217.672
46.00000 217.508
46.04000 207.007
46.08000 203.195
46.12000 209.210
46.16000 206.244
46.20000 227.275
46.24000 205.689
46.28000 199.341
46.32000 205.520
46.36000 201.869
46.40000 208.667
46.44000 211.446
46.48000 203.757
46.52000 223.876
46.56000 206.779
46.60000 193.627
46.64000 213.691
46.68000 220.213
46.72000 202.083
46.76000 209.053
46.80000 211.507
46.84000 197.022
46.88000 204.343
46.92000 223.751
46.96000 203.734
47.00000 196.546
47.04000 195.684
47.08000 193.959
47.12000 210.535
47.16000 184.990
47.20000 194.544
47.24000 204.037
47.28000 187.879
47.32000 195.584
47.36000 185.345
47.40000 183.109
47.44000 173.372
47.48000 198.082
47.52000 188.446
47.56000 199.360
47.60000 178.451
47.64000 195.192
47.68000 186.419
47.72000 192.756
47.76000 183.783
47.80000 191.595
47.84000 192.988
47.88000 188.174
47.92000 180.538
47.96000 176.585
48.00000 184.531
48.04000 184.348
48.08000 174.555
48.12000 180.444
48.16000 173.820
48.20000 185.918
48.24000 182.971
48.28000 170.810
48.32000 179.433
48.36000 181.870
48.40000 194.115
48.44000 179.899
48.48000 177.304
48.52000 182.468
48.56000 181.590
48.60000 186.445
48.64000 180.962
48.68000 184.651
48.72000 181.326
48.76000 191.404
48.80000 185.047
48.84000 175.775
48.88000 173.275
48.92000 162.519
48.96000 174.000
49.00000 189.874
49.04000 181.376
49.08000 177.287
49.12000 185.093
49.16000 171.112
49.20000 175.382
49.24000 182.126
49.28000 167.264
49.32000 180.026
49.36000 177.653
49.40000 171.106
49.44000 172.841
49.48000 172.793
49.52000 183.594
49.56000 180.040
49.60000 163.016
49.64000 165.463
49.68000 173.277
49.72000 165.769
49.76000 170.235
49.80000 171.911
49.84000 172.034
49.88000 163.822
49.92000 174.864
49.96000 173.708
50.00000 169.358
50.04000 179.517
50.08000 162.476
50.12000 163.016
50.16000 179.230
50.20000 181.738
50.24000 179.676
50.28000 181.290
50.32000 183.052
50.36000 179.432
50.40000 186.657
50.44000 173.912
50.48000 173.432
50.52000 182.678
50.56000 188.821
50.60000 194.199
50.64000 202.488
50.68000 201.834
50.72000 214.603
50.76000 228.626
50.80000 215.975
50.84000 215.898
50.88000 217.923
50.92000 213.221
50.96000 210.312
51.00000 197.862
51.04000 194.305
51.08000 193.035
51.12000 184.970
51.16000 182.346
51.20000 169.864
51.24000 164.734
51.28000 165.651
51.32000 171.488
51.36000 165.754
51.40000 170.055
51.44000 178.916
51.48000 173.900
51.52000 179.715
51.56000 161.724
51.60000 165.462
51.64000 174.868
51.68000 165.484
51.72000 167.660
51.76000 164.313
51.80000 164.278
51.84000 175.339
51.88000 168.311
51.92000 164.517
51.96000 157.332
52.00000 162.540
52.04000 156.933
52.08000 167.089
52.12000 167.194
52.16000 162.054
52.20000 161.073
52.24000 160.713
52.28000 161.848
52.32000 168.538
52.36000 167.094
52.40000 157.187
52.44000 159.312
52.48000 158.451
52.52000 161.792
52.56000 154.178
52.60000 163.585
52.64000 154.261
52.68000 148.490
52.72000 152.677
52.76000 168.165
52.80000 140.230
52.84000 154.732
52.88000 154.315
52.92000 151.360
52.96000 161.106
53.00000 151.796
53.04000 156.647
53.08000 153.556
53.12000 160.450
53.16000 153.914
53.20000 155.852
53.24000 155.151
53.28000 151.346
53.32000 157.904
53.36000 154.655
53.40000 167.557
53.44000 165.486
53.48000 154.362
53.52000 159.177
53.56000 151.801
53.60000 155.986
53.64000 167.080
53.68000 163.292
53.72000 152.155
53.76000 154.322
53.80000 153.844
53.84000 142.282
53.88000 154.240
53.92000 152.523
53.96000 156.541
54.00000 149.972
54.04000 156.031
54.08000 155.277
54.12000 160.127
54.16000 156.534
54.20000 161.333
54.24000 153.832
54.28000 149.657
54.32000 159.091
54.36000 158.718
54.40000 145.902
54.44000 153.160
54.48000 159.944
54.52000 154.038
54.56000 163.496
54.60000 152.903
54.64000 166.887
54.68000 148.856
54.72000 157.366
54.76000 154.394
54.80000 143.725
54.84000 158.891
54.88000 147.158
54.92000 155.155
54.96000 160.170
55.00000 166.005
55.04000 148.422
55.08000 146.934
55.12000 145.116
55.16000 153.535
55.20000 166.087
55.24000 166.985
55.28000 162.563
55.32000 159.096
55.36000 165.909
55.40000 163.583
55.44000 179.360
55.48000 182.469
55.52000 174.209
55.56000 183.758
55.60000 194.317
55.64000 223.518
55.68000 222.839
55.72000 251.266
55.76000 265.546
55.80000 318.208
55.84000 343.971
55.88000 433.056
55.92000 494.598
55.96000 574.572
56.00000 583.733
56.04000 589.840
56.08000 585.081
56.12000 556.053
56.16000 542.889
56.20000 489.571
56.24000 460.851
56.28000 371.744
56.32000 346.393
56.36000 289.224
56.40000 263.384
56.44000 236.241
56.48000 209.456
56.52000 201.769
56.56000 194.610
56.60000 177.768
56.64000 165.646
56.68000 162.336
56.72000 154.079
56.76000 168.432
56.80000 158.223
56.84000 167.792
56.88000 150.253
56.92000 153.722
56.96000 149.592
57.00000 145.523
57.04000 142.371
57.08000 140.217
57.12000 148.281
57.16000 143.204
57.20000 151.358
57.24000 148.143
57.28000 136.872
57.32000 138.243
57.36000 137.078
57.40000 139.871
57.44000 135.646
57.48000 150.311
57.52000 147.714
57.56000 140.452
57.60000 143.654
57.64000 140.904
57.68000 138.458
57.72000 142.675
57.76000 154.174
57.80000 140.229
57.84000 129.688
57.88000 137.803
57.92000 147.839
57.96000 146.490
58.00000 140.074
58.04000 136.778
58.08000 149.999
58.12000 145.986
58.16000 134.408
58.20000 144.904
58.24000 133.544
58.28000 139.721
58.32000 129.332
58.36000 145.124
58.40000 142.846
58.44000 131.774
58.48000 138.434
58.52000 139.062
58.56000 137.122
58.60000 130.059
58.64000 135.678
58.68000 137.202
58.72000 133.241
58.76000 143.735
58.80000 138.257
58.84000 148.481
58.88000 135.300
58.92000 128.219
58.96000 138.050
59.00000 135.135
59.04000 134.847
59.08000 133.525
59.12000 129.965
59.16000 138.476
59.20000 133.224
59.24000 130.920
59.28000 136.227
59.32000 142.284
59.36000 133.577
59.40000 132.622
59.44000 131.074
59.48000 132.642
59.52000 136.482
59.56000 130.101
59.60000 130.035
59.64000 134.553
59.68000 140.857
59.72000 140.682
59.76000 138.208
59.80000 137.014
59.84000 135.221
59.88000 118.968
59.92000 128.188
59.96000 135.803
60.00000 140.227
60.04000 137.047
60.08000 131.035
60.12000 137.468
60.16000 135.844
60.20000 133.812
60.24000 138.643
60.28000 133.152
60.32000 123.247
60.36000 132.821
60.40000 138.965
60.44000 136.562
60.48000 137.023
60.52000 131.477
60.56000 134.734
60.60000 132.797
60.64000 130.175
60.68000 122.948
60.72000 141.275
60.76000 132.432
60.80000 139.414
60.84000 144.752
60.88000 138.590
60.92000 131.150
60.96000 126.927
61.00000 138.293
61.04000 137.005
61.08000 134.830
61.12000 136.493
61.16000 141.543
61.20000 139.242
61.24000 135.123
61.28000 154.434
61.32000 141.115
61.36000 136.953
61.40000 143.233
61.44000 145.134
61.48000 144.260
61.52000 157.751
61.56000 184.043
61.60000 228.605
61.64000 245.787
61.68000 264.836
61.72000 254.380
61.76000 250.367
61.80000 237.618
61.84000 182.459
61.88000 156.259
61.92000 140.048
61.96000 138.889
62.00000 138.797
62.04000 143.111
62.08000 148.350
62.12000 133.831
62.16000 146.517
62.20000 138.616
62.24000 144.984
62.28000 141.653
62.32000 138.445
62.36000 130.824
62.40000 133.543
62.44000 149.684
62.48000 149.095
62.52000 131.102
62.56000 142.775
62.60000 133.602
62.64000 144.250
62.68000 142.261
62.72000 151.569
62.76000 145.457
62.80000 143.395
62.84000 146.726
62.88000 139.824
62.92000 140.306
62.96000 149.981
63.00000 143.867
63.04000 144.820
63.08000 142.186
63.12000 147.568
63.16000 160.754
63.20000 147.205
63.24000 146.340
63.28000 142.120
63.32000 147.371
63.36000 156.061
63.40000 133.369
63.44000 162.919
63.48000 151.108
63.52000 146.248
63.56000 161.329
63.60000 152.162
63.64000 146.960
63.68000 144.055
63.72000 148.484
63.76000 147.375
63.80000 153.578
63.84000 142.843
63.88000 135.645
63.92000 146.358
63.96000 161.645
64.00000 147.987
64.04000 153.180
64.08000 162.954
64.12000 151.047
64.16000 168.514
64.20000 155.759
64.24000 161.388
64.28000 151.310
64.32000 164.601
64.36000 177.769
64.40000 168.310
64.44000 163.323
64.48000 173.509
64.52000 162.322
64.56000 166.652
64.60000 166.627
64.64000 179.343
64.68000 170.403
64.72000 158.367
64.76000 177.910
64.80000 184.542
64.84000 191.353
64.88000 172.705
64.92000 187.893
64.96000 192.938
65.00000 177.878
65.04000 182.033
65.08000 188.017
65.12000 205.098
65.16000 196.954
65.20000 196.521
65.24000 204.811
65.28000 212.770
65.32000 217.005
65.36000 238.809
65.40000 241.973
65.44000 250.437
65.48000 271.759
65.52000 290.197
65.56000 318.429
65.60000 338.531
65.64000 360.805
65.68000 410.765
65.72000 531.060
65.76000 737.432
65.80000 906.346
65.84000 1043.516
65.88000 1022.707
65.92000 999.670
65.96000 937.858
66.00000 674.466
66.04000 468.166
66.08000 373.153
66.12000 330.027
66.16000 300.887
66.20000 306.631
66.24000 298.004
66.28000 334.124
66.32000 380.775
66.36000 413.643
66.40000 418.647
66.44000 434.499
66.48000 420.322
66.52000 410.178
66.56000 371.786
66.60000 322.684
66.64000 321.918
66.68000 308.808
66.72000 305.112
66.76000 311.719
66.80000 298.665
66.84000 320.037
66.88000 308.551
66.92000 339.365
66.96000 342.353
67.00000 324.889
67.04000 332.023
67.08000 351.525
67.12000 361.537
67.16000 364.895
67.20000 360.409
67.24000 370.031
67.28000 365.151
67.32000 384.273
67.36000 396.028
67.40000 387.908
67.44000 406.326
67.48000 399.578
67.52000 397.614
67.56000 411.379
67.60000 413.944
67.64000 443.222
67.68000 443.558
67.72000 461.570
67.76000 484.027
67.80000 458.652
67.84000 478.805
67.88000 491.485
67.92000 505.719
67.96000 497.410
68.00000 518.630
68.04000 515.755
68.08000 534.513
68.12000 526.439
68.16000 586.765
68.20000 574.724
68.24000 603.872
68.28000 615.159
68.32000 627.665
68.36000 642.449
68.40000 684.386
68.44000 715.445
68.48000 737.640
68.52000 787.459
68.56000 821.138
68.60000 882.958
68.64000 1052.996
68.68000 1209.149
68.72000 1418.156
68.76000 1593.208
68.80000 1863.588
68.84000 2101.958
68.88000 2580.679
68.92000 4282.332
68.96000 10247.999
69.00000 24606.213
69.04000 41691.285
69.08000 50982.355
69.12000 53253.215
69.16000 55667.508
69.20000 56232.816
69.24000 48377.703
69.28000 36393.797
69.32000 29596.555
69.36000 26760.945
69.40000 22841.043
69.44000 14593.028
69.48000 6683.431
69.52000 3001.276
69.56000 1888.767
69.60000 1461.732
69.64000 1227.734
69.68000 1089.439
69.72000 1025.016
69.76000 896.722
69.80000 835.335
69.84000 776.287
69.88000 725.290
69.92000 693.617
69.96000 680.967
70.00000 649.773