File: XRD/22-09-2025 Dep 2/XY Data/BTO_Mapping_Theta2Theta_22-09-2025_001_16_31-174_39-092.xy
20.00000 1328.750
20.04000 1299.641
20.08000 1303.381
20.12000 1304.760
20.16000 1279.407
20.20000 1304.100
20.24000 1290.648
20.28000 1288.294
20.32000 1244.811
20.36000 1272.606
20.40000 1251.855
20.44000 1281.739
20.48000 1249.804
20.52000 1255.962
20.56000 1285.280
20.60000 1256.924
20.64000 1240.877
20.68000 1215.813
20.72000 1234.249
20.76000 1229.072
20.80000 1237.147
20.84000 1210.759
20.88000 1225.335
20.92000 1221.105
20.96000 1194.535
21.00000 1240.456
21.04000 1196.170
21.08000 1204.750
21.12000 1213.040
21.16000 1177.409
21.20000 1201.083
21.24000 1201.367
21.28000 1213.696
21.32000 1212.352
21.36000 1169.162
21.40000 1174.602
21.44000 1176.115
21.48000 1217.329
21.52000 1166.247
21.56000 1189.274
21.60000 1163.225
21.64000 1152.501
21.68000 1155.326
21.72000 1172.100
21.76000 1159.793
21.80000 1163.506
21.84000 1172.337
21.88000 1180.575
21.92000 1127.250
21.96000 1126.376
22.00000 1119.148
22.04000 1131.471
22.08000 1133.088
22.12000 1131.720
22.16000 1111.820
22.20000 1136.159
22.24000 1116.377
22.28000 1136.097
22.32000 1114.211
22.36000 1113.136
22.40000 1080.097
22.44000 1095.424
22.48000 1098.515
22.52000 1116.688
22.56000 1114.959
22.60000 1083.365
22.64000 1103.477
22.68000 1096.252
22.72000 1086.804
22.76000 1092.583
22.80000 1098.689
22.84000 1071.883
22.88000 1071.693
22.92000 1077.859
22.96000 1082.675
23.00000 1064.298
23.04000 1055.163
23.08000 1073.295
23.12000 1059.443
23.16000 1072.104
23.20000 1054.302
23.24000 1057.333
23.28000 1031.706
23.32000 1050.887
23.36000 1038.655
23.40000 1052.117
23.44000 1028.351
23.48000 1011.063
23.52000 1045.898
23.56000 1004.893
23.60000 1024.618
23.64000 1022.450
23.68000 1013.833
23.72000 1011.561
23.76000 994.384
23.80000 991.200
23.84000 997.987
23.88000 1047.303
23.92000 1017.415
23.96000 966.854
24.00000 1011.756
24.04000 1003.199
24.08000 966.675
24.12000 998.387
24.16000 967.264
24.20000 986.503
24.24000 1008.123
24.28000 987.716
24.32000 985.045
24.36000 987.667
24.40000 989.079
24.44000 983.132
24.48000 969.876
24.52000 976.950
24.56000 988.351
24.60000 955.735
24.64000 949.881
24.68000 942.796
24.72000 963.493
24.76000 941.211
24.80000 942.229
24.84000 934.601
24.88000 955.927
24.92000 929.782
24.96000 963.629
25.00000 941.821
25.04000 982.597
25.08000 933.190
25.12000 932.608
25.16000 940.665
25.20000 946.449
25.24000 951.080
25.28000 929.916
25.32000 905.625
25.36000 927.350
25.40000 925.578
25.44000 930.843
25.48000 936.247
25.52000 907.481
25.56000 919.256
25.60000 908.793
25.64000 914.302
25.68000 936.015
25.72000 923.194
25.76000 886.264
25.80000 917.103
25.84000 916.250
25.88000 902.620
25.92000 904.129
25.96000 872.938
26.00000 905.740
26.04000 892.159
26.08000 876.146
26.12000 901.899
26.16000 881.283
26.20000 883.185
26.24000 873.429
26.28000 880.942
26.32000 898.947
26.36000 859.136
26.40000 874.815
26.44000 876.833
26.48000 900.512
26.52000 875.911
26.56000 868.294
26.60000 845.753
26.64000 855.091
26.68000 869.034
26.72000 888.646
26.76000 864.593
26.80000 860.170
26.84000 866.491
26.88000 899.465
26.92000 845.656
26.96000 849.059
27.00000 851.250
27.04000 873.485
27.08000 855.538
27.12000 851.221
27.16000 853.268
27.20000 844.971
27.24000 843.673
27.28000 856.545
27.32000 831.087
27.36000 844.524
27.40000 838.431
27.44000 872.029
27.48000 849.050
27.52000 830.290
27.56000 841.343
27.60000 823.952
27.64000 810.059
27.68000 852.537
27.72000 822.472
27.76000 844.239
27.80000 845.677
27.84000 811.972
27.88000 841.601
27.92000 827.851
27.96000 803.445
28.00000 826.966
28.04000 803.420
28.08000 842.257
28.12000 858.291
28.16000 822.385
28.20000 834.906
28.24000 860.138
28.28000 819.699
28.32000 837.442
28.36000 795.441
28.40000 821.040
28.44000 820.620
28.48000 814.271
28.52000 817.773
28.56000 809.457
28.60000 823.654
28.64000 794.203
28.68000 808.586
28.72000 811.791
28.76000 800.731
28.80000 818.502
28.84000 813.600
28.88000 799.036
28.92000 802.772
28.96000 786.108
29.00000 803.328
29.04000 824.939
29.08000 793.653
29.12000 810.186
29.16000 792.077
29.20000 807.078
29.24000 811.945
29.28000 792.203
29.32000 811.106
29.36000 801.846
29.40000 785.860
29.44000 784.171
29.48000 789.146
29.52000 823.821
29.56000 796.573
29.60000 793.103
29.64000 821.276
29.68000 824.104
29.72000 802.492
29.76000 784.775
29.80000 825.724
29.84000 796.743
29.88000 797.539
29.92000 794.800
29.96000 791.297
30.00000 808.942
30.04000 788.482
30.08000 810.592
30.12000 800.118
30.16000 795.502
30.20000 790.770
30.24000 793.007
30.28000 806.490
30.32000 805.270
30.36000 813.086
30.40000 784.536
30.44000 801.999
30.48000 823.603
30.52000 819.994
30.56000 771.225
30.60000 799.527
30.64000 814.063
30.68000 780.175
30.72000 786.210
30.76000 780.949
30.80000 785.404
30.84000 785.182
30.88000 804.223
30.92000 786.980
30.96000 776.650
31.00000 783.815
31.04000 778.222
31.08000 771.485
31.12000 800.762
31.16000 807.278
31.20000 813.972
31.24000 787.426
31.28000 777.676
31.32000 785.113
31.36000 789.203
31.40000 803.976
31.44000 786.846
31.48000 785.897
31.52000 788.248
31.56000 835.764
31.60000 807.673
31.64000 800.610
31.68000 770.136
31.72000 801.574
31.76000 786.866
31.80000 801.770
31.84000 789.641
31.88000 825.325
31.92000 791.333
31.96000 797.766
32.00000 803.866
32.04000 791.770
32.08000 789.299
32.12000 813.727
32.16000 810.741
32.20000 808.613
32.24000 816.478
32.28000 804.483
32.32000 775.033
32.36000 816.595
32.40000 802.157
32.44000 819.067
32.48000 808.527
32.52000 815.719
32.56000 808.383
32.60000 799.722
32.64000 787.616
32.68000 824.976
32.72000 819.762
32.76000 825.924
32.80000 805.998
32.84000 798.106
32.88000 817.194
32.92000 807.515
32.96000 848.489
33.00000 826.327
33.04000 824.006
33.08000 820.270
33.12000 801.650
33.16000 806.010
33.20000 814.583
33.24000 804.872
33.28000 809.602
33.32000 815.350
33.36000 829.393
33.40000 856.930
33.44000 848.617
33.48000 804.516
33.52000 831.906
33.56000 849.835
33.60000 841.305
33.64000 830.250
33.68000 833.826
33.72000 823.095
33.76000 824.492
33.80000 820.336
33.84000 852.593
33.88000 847.405
33.92000 844.018
33.96000 833.891
34.00000 832.739
34.04000 854.562
34.08000 836.325
34.12000 857.115
34.16000 855.112
34.20000 836.034
34.24000 838.045
34.28000 838.258
34.32000 859.725
34.36000 841.888
34.40000 865.214
34.44000 846.372
34.48000 857.967
34.52000 854.334
34.56000 856.773
34.60000 884.452
34.64000 862.302
34.68000 845.716
34.72000 888.169
34.76000 863.540
34.80000 867.185
34.84000 841.368
34.88000 871.364
34.92000 868.084
34.96000 866.292
35.00000 885.001
35.04000 892.508
35.08000 861.495
35.12000 908.415
35.16000 882.113
35.20000 887.836
35.24000 858.128
35.28000 901.258
35.32000 894.911
35.36000 902.353
35.40000 906.669
35.44000 919.474
35.48000 884.067
35.52000 866.414
35.56000 906.066
35.60000 904.781
35.64000 901.636
35.68000 917.168
35.72000 902.968
35.76000 891.548
35.80000 905.770
35.84000 913.309
35.88000 905.700
35.92000 899.430
35.96000 887.586
36.00000 909.356
36.04000 915.942
36.08000 914.205
36.12000 911.379
36.16000 932.636
36.20000 907.397
36.24000 934.080
36.28000 899.140
36.32000 927.601
36.36000 935.021
36.40000 927.803
36.44000 925.033
36.48000 922.151
36.52000 948.921
36.56000 949.027
36.60000 971.295
36.64000 930.782
36.68000 939.623
36.72000 919.998
36.76000 928.801
36.80000 945.186
36.84000 956.931
36.88000 952.720
36.92000 950.686
36.96000 969.868
37.00000 943.714
37.04000 955.886
37.08000 976.256
37.12000 949.590
37.16000 960.247
37.20000 960.960
37.24000 941.884
37.28000 958.224
37.32000 953.328
37.36000 948.604
37.40000 979.198
37.44000 969.353
37.48000 970.022
37.52000 966.902
37.56000 958.895
37.60000 968.038
37.64000 999.916
37.68000 974.464
37.72000 947.264
37.76000 995.359
37.80000 999.522
37.84000 968.953
37.88000 965.250
37.92000 999.195
37.96000 989.944
38.00000 989.817
38.04000 993.604
38.08000 990.346
38.12000 1022.007
38.16000 987.627
38.20000 974.975
38.24000 997.323
38.28000 1012.832
38.32000 1037.876
38.36000 1011.161
38.40000 999.740
38.44000 1018.178
38.48000 1007.457
38.52000 1017.613
38.56000 992.919
38.60000 1011.926
38.64000 1007.708
38.68000 1026.627
38.72000 1031.721
38.76000 1023.519
38.80000 1064.362
38.84000 1016.849
38.88000 1045.854
38.92000 1045.140
38.96000 1037.239
39.00000 1040.396
39.04000 1050.560
39.08000 1055.474
39.12000 1038.151
39.16000 1026.138
39.20000 1051.871
39.24000 1051.704
39.28000 1053.092
39.32000 1076.948
39.36000 1034.278
39.40000 1057.653
39.44000 1034.780
39.48000 1047.844
39.52000 1072.573
39.56000 1060.169
39.60000 1079.914
39.64000 1081.971
39.68000 1073.421
39.72000 1099.640
39.76000 1104.328
39.80000 1085.256
39.84000 1065.469
39.88000 1072.850
39.92000 1066.756
39.96000 1096.660
40.00000 1076.168
40.04000 1080.139
40.08000 1090.120
40.12000 1093.804
40.16000 1075.728
40.20000 1064.761
40.24000 1141.451
40.28000 1098.638
40.32000 1100.224
40.36000 1104.068
40.40000 1100.385
40.44000 1102.011
40.48000 1126.065
40.52000 1092.685
40.56000 1106.428
40.60000 1118.596
40.64000 1115.389
40.68000 1123.434
40.72000 1111.557
40.76000 1109.312
40.80000 1110.378
40.84000 1119.366
40.88000 1106.148
40.92000 1153.011
40.96000 1120.796
41.00000 1130.221
41.04000 1119.515
41.08000 1131.061
41.12000 1153.033
41.16000 1128.163
41.20000 1149.978
41.24000 1147.023
41.28000 1151.698
41.32000 1140.119
41.36000 1153.068
41.40000 1150.057
41.44000 1154.550
41.48000 1160.069
41.52000 1163.873
41.56000 1159.442
41.60000 1163.501
41.64000 1164.406
41.68000 1172.417
41.72000 1166.278
41.76000 1158.079
41.80000 1157.588
41.84000 1177.669
41.88000 1194.580
41.92000 1158.364
41.96000 1193.615
42.00000 1186.953
42.04000 1198.454
42.08000 1209.808
42.12000 1212.958
42.16000 1216.023
42.20000 1239.716
42.24000 1238.898
42.28000 1246.172
42.32000 1219.784
42.36000 1234.379
42.40000 1233.993
42.44000 1180.027
42.48000 1242.837
42.52000 1251.165
42.56000 1224.434
42.60000 1224.177
42.64000 1236.070
42.68000 1216.404
42.72000 1199.971
42.76000 1237.681
42.80000 1223.872
42.84000 1251.461
42.88000 1232.175
42.92000 1258.279
42.96000 1258.114
43.00000 1257.405
43.04000 1266.170
43.08000 1271.985
43.12000 1277.438
43.16000 1256.539
43.20000 1238.067
43.24000 1279.302
43.28000 1283.603
43.32000 1292.111
43.36000 1269.518
43.40000 1289.510
43.44000 1307.041
43.48000 1306.096
43.52000 1335.397
43.56000 1370.873
43.60000 1368.404
43.64000 1376.138
43.68000 1358.025
43.72000 1391.136
43.76000 1479.901
43.80000 1529.604
43.84000 1591.078
43.88000 1706.366
43.92000 1832.509
43.96000 2074.620
44.00000 2342.798
44.04000 2727.641
44.08000 3171.213
44.12000 3536.085
44.16000 4000.918
44.20000 4364.468
44.24000 4593.659
44.28000 4475.163
44.32000 4202.077
44.36000 3807.612
44.40000 3417.620
44.44000 3048.789
44.48000 2593.552
44.52000 2255.984
44.56000 1996.514
44.60000 1824.732
44.64000 1672.482
44.68000 1601.041
44.72000 1531.113
44.76000 1473.404
44.80000 1435.512
44.84000 1421.057
44.88000 1384.040
44.92000 1392.908
44.96000 1357.962
45.00000 1361.762
45.04000 1361.589
45.08000 1376.637
45.12000 1343.517
45.16000 1362.805
45.20000 1369.379
45.24000 1344.033
45.28000 1353.421
45.32000 1361.344
45.36000 1349.718
45.40000 1358.991
45.44000 1344.722
45.48000 1360.268
45.52000 1311.295
45.56000 1340.130
45.60000 1350.367
45.64000 1356.591
45.68000 1354.949
45.72000 1302.124
45.76000 1311.370
45.80000 1315.505
45.84000 1341.267
45.88000 1369.215
45.92000 1341.215
45.96000 1338.604
46.00000 1393.076
46.04000 1364.630
46.08000 1398.720
46.12000 1356.111
46.16000 1369.459
46.20000 1339.432
46.24000 1381.028
46.28000 1371.474
46.32000 1349.459
46.36000 1383.597
46.40000 1385.557
46.44000 1359.259
46.48000 1406.425
46.52000 1357.065
46.56000 1357.405
46.60000 1392.988
46.64000 1398.352
46.68000 1363.963
46.72000 1387.859
46.76000 1353.292
46.80000 1366.254
46.84000 1419.649
46.88000 1394.465
46.92000 1413.636
46.96000 1329.570
47.00000 1380.451
47.04000 1364.288
47.08000 1412.877
47.12000 1384.962
47.16000 1402.876
47.20000 1391.440
47.24000 1364.603
47.28000 1416.063
47.32000 1406.752
47.36000 1392.380
47.40000 1391.508
47.44000 1400.181
47.48000 1448.273
47.52000 1396.274
47.56000 1424.759
47.60000 1450.284
47.64000 1424.224
47.68000 1447.075
47.72000 1427.123
47.76000 1430.290
47.80000 1412.521
47.84000 1426.244
47.88000 1437.305
47.92000 1434.155
47.96000 1422.521
48.00000 1485.426
48.04000 1460.502
48.08000 1433.120
48.12000 1444.760
48.16000 1456.204
48.20000 1491.165
48.24000 1449.969
48.28000 1437.989
48.32000 1412.025
48.36000 1437.370
48.40000 1433.776
48.44000 1456.241
48.48000 1483.649
48.52000 1430.074
48.56000 1475.148
48.60000 1475.016
48.64000 1449.031
48.68000 1447.670
48.72000 1431.569
48.76000 1472.702
48.80000 1462.285
48.84000 1469.803
48.88000 1481.532
48.92000 1482.103
48.96000 1451.548
49.00000 1438.051
49.04000 1513.932
49.08000 1497.446
49.12000 1469.593
49.16000 1484.391
49.20000 1487.333
49.24000 1486.347
49.28000 1471.894
49.32000 1471.892
49.36000 1479.036
49.40000 1480.890
49.44000 1476.231
49.48000 1488.697
49.52000 1499.721
49.56000 1489.690
49.60000 1509.057
49.64000 1457.492
49.68000 1493.245
49.72000 1534.658
49.76000 1491.251
49.80000 1485.830
49.84000 1496.617
49.88000 1510.092
49.92000 1503.999
49.96000 1491.530
50.00000 1460.567
50.04000 1498.659
50.08000 1507.039
50.12000 1526.415
50.16000 1514.351
50.20000 1547.819
50.24000 1523.638
50.28000 1505.211
50.32000 1505.653
50.36000 1522.157
50.40000 1527.774
50.44000 1501.665
50.48000 1485.913
50.52000 1538.826
50.56000 1545.693
50.60000 1550.568
50.64000 1512.650
50.68000 1543.423
50.72000 1493.081
50.76000 1535.817
50.80000 1536.974
50.84000 1535.438
50.88000 1530.382
50.92000 1539.462
50.96000 1539.743
51.00000 1518.469
51.04000 1535.356
51.08000 1519.537
51.12000 1528.626
51.16000 1577.307
51.20000 1558.324
51.24000 1594.844
51.28000 1561.922
51.32000 1564.632
51.36000 1537.056
51.40000 1582.790
51.44000 1565.510
51.48000 1512.624
51.52000 1555.594
51.56000 1574.175
51.60000 1539.803
51.64000 1580.440
51.68000 1573.390
51.72000 1553.631
51.76000 1550.397
51.80000 1560.480
51.84000 1563.048
51.88000 1567.148
51.92000 1589.534
51.96000 1564.167
52.00000 1553.121
52.04000 1556.087
52.08000 1602.894
52.12000 1585.592
52.16000 1558.698
52.20000 1582.578
52.24000 1589.875
52.28000 1586.874
52.32000 1591.720
52.36000 1606.686
52.40000 1581.233
52.44000 1553.881
52.48000 1598.242
52.52000 1587.372
52.56000 1581.997
52.60000 1565.929
52.64000 1580.098
52.68000 1592.640
52.72000 1576.795
52.76000 1611.754
52.80000 1586.746
52.84000 1580.566
52.88000 1602.221
52.92000 1602.685
52.96000 1599.820
53.00000 1590.978
53.04000 1581.056
53.08000 1585.058
53.12000 1612.968
53.16000 1620.252
53.20000 1610.636
53.24000 1605.217
53.28000 1638.475
53.32000 1605.149
53.36000 1618.633
53.40000 1577.094
53.44000 1657.533
53.48000 1599.325
53.52000 1604.394
53.56000 1588.908
53.60000 1595.744
53.64000 1618.180
53.68000 1619.979
53.72000 1605.779
53.76000 1645.705
53.80000 1640.609
53.84000 1633.015
53.88000 1674.955
53.92000 1635.869
53.96000 1659.328
54.00000 1621.322
54.04000 1619.897
54.08000 1635.393
54.12000 1637.318
54.16000 1656.981
54.20000 1632.969
54.24000 1643.972
54.28000 1681.673
54.32000 1664.318
54.36000 1660.642
54.40000 1653.305
54.44000 1647.174
54.48000 1653.211
54.52000 1634.633
54.56000 1677.075
54.60000 1646.595
54.64000 1659.286
54.68000 1681.094
54.72000 1639.060
54.76000 1618.794
54.80000 1647.623
54.84000 1665.282
54.88000 1603.857
54.92000 1658.268
54.96000 1624.990
55.00000 1662.014
55.04000 1664.165
55.08000 1693.647
55.12000 1668.060
55.16000 1681.705
55.20000 1663.452
55.24000 1672.417
55.28000 1666.381
55.32000 1644.790
55.36000 1648.804
55.40000 1662.100
55.44000 1681.222
55.48000 1664.413
55.52000 1639.663
55.56000 1652.929
55.60000 1661.232
55.64000 1668.601
55.68000 1670.191
55.72000 1730.462
55.76000 1700.587
55.80000 1681.870
55.84000 1669.520
55.88000 1670.763
55.92000 1671.935
55.96000 1688.849
56.00000 1687.468
56.04000 1692.603
56.08000 1676.339
56.12000 1692.659
56.16000 1717.287
56.20000 1686.625
56.24000 1674.341
56.28000 1702.675
56.32000 1703.641
56.36000 1693.545
56.40000 1698.242
56.44000 1702.513
56.48000 1694.786
56.52000 1686.809
56.56000 1722.408
56.60000 1687.109
56.64000 1686.339
56.68000 1726.196
56.72000 1708.246
56.76000 1731.799
56.80000 1708.672
56.84000 1698.284
56.88000 1720.378
56.92000 1687.213
56.96000 1704.918
57.00000 1750.042
57.04000 1749.141
57.08000 1718.270
57.12000 1698.692
57.16000 1671.112
57.20000 1665.258
57.24000 1701.766
57.28000 1731.919
57.32000 1722.497
57.36000 1732.842
57.40000 1714.380
57.44000 1728.038
57.48000 1708.197
57.52000 1712.595
57.56000 1735.317
57.60000 1743.446
57.64000 1726.607
57.68000 1720.599
57.72000 1768.551
57.76000 1742.155
57.80000 1714.689
57.84000 1717.588
57.88000 1714.499
57.92000 1708.971
57.96000 1725.841
58.00000 1714.576
58.04000 1723.493
58.08000 1691.261
58.12000 1761.562
58.16000 1767.107
58.20000 1766.673
58.24000 1733.559
58.28000 1725.738
58.32000 1686.691
58.36000 1747.838
58.40000 1756.575
58.44000 1738.538
58.48000 1746.552
58.52000 1729.312
58.56000 1724.609
58.60000 1772.576
58.64000 1784.511
58.68000 1776.188
58.72000 1769.079
58.76000 1753.650
58.80000 1759.648
58.84000 1749.798
58.88000 1746.567
58.92000 1738.630
58.96000 1736.531
59.00000 1776.750
59.04000 1769.106
59.08000 1740.510
59.12000 1744.707
59.16000 1739.903
59.20000 1777.378
59.24000 1765.917
59.28000 1783.130
59.32000 1759.826
59.36000 1771.634
59.40000 1799.323
59.44000 1771.543
59.48000 1764.554
59.52000 1775.541
59.56000 1810.254
59.60000 1734.450
59.64000 1769.760
59.68000 1764.171
59.72000 1744.704
59.76000 1780.859
59.80000 1789.094
59.84000 1762.905
59.88000 1731.667
59.92000 1766.905
59.96000 1789.355
60.00000 1790.893
60.04000 1788.808
60.08000 1759.907
60.12000 1811.425
60.16000 1799.629
60.20000 1759.510
60.24000 1765.888
60.28000 1796.392
60.32000 1784.150
60.36000 1796.174
60.40000 1809.459
60.44000 1818.751
60.48000 1821.130
60.52000 1783.357
60.56000 1752.681
60.60000 1780.510
60.64000 1819.169
60.68000 1796.987
60.72000 1752.796
60.76000 1834.120
60.80000 1787.833
60.84000 1794.230
60.88000 1796.265
60.92000 1785.901
60.96000 1778.306
61.00000 1795.454
61.04000 1812.179
61.08000 1842.286
61.12000 1807.906
61.16000 1798.427
61.20000 1779.256
61.24000 1792.481
61.28000 1770.775
61.32000 1816.781
61.36000 1818.862
61.40000 1801.290
61.44000 1846.729
61.48000 1795.139
61.52000 1826.081
61.56000 1804.279
61.60000 1842.062
61.64000 1835.630
61.68000 1849.270
61.72000 1876.293
61.76000 1826.752
61.80000 1830.422
61.84000 1804.562
61.88000 1805.223
61.92000 1847.383
61.96000 1823.148
62.00000 1816.583
62.04000 1863.486
62.08000 1848.302
62.12000 1828.296
62.16000 1815.687
62.20000 1835.706
62.24000 1835.937
62.28000 1826.314
62.32000 1842.521
62.36000 1806.348
62.40000 1826.997
62.44000 1821.839
62.48000 1816.412
62.52000 1848.361
62.56000 1845.904
62.60000 1771.154
62.64000 1885.478
62.68000 1846.090
62.72000 1838.999
62.76000 1852.144
62.80000 1818.942
62.84000 1844.303
62.88000 1855.645
62.92000 1814.682
62.96000 1844.058
63.00000 1840.415
63.04000 1822.815
63.08000 1828.783
63.12000 1846.277
63.16000 1851.892
63.20000 1840.758
63.24000 1857.077
63.28000 1888.076
63.32000 1852.200
63.36000 1901.560
63.40000 1885.847
63.44000 1846.828
63.48000 1869.563
63.52000 1879.282
63.56000 1879.495
63.60000 1852.871
63.64000 1920.293
63.68000 1867.577
63.72000 1881.336
63.76000 1891.997
63.80000 1875.084
63.84000 1880.751
63.88000 1881.189
63.92000 1941.342
63.96000 1890.127
64.00000 1899.110
64.04000 1943.003
64.08000 1943.101
64.12000 1931.461
64.16000 1950.476
64.20000 1939.508
64.24000 2008.241
64.28000 2005.688
64.32000 2012.764
64.36000 2047.304
64.40000 2087.909
64.44000 2095.487
64.48000 2152.166
64.52000 2164.107
64.56000 2185.291
64.60000 2168.461
64.64000 2155.742
64.68000 2091.047
64.72000 2105.623
64.76000 2146.170
64.80000 2088.721
64.84000 2046.439
64.88000 2051.681
64.92000 2021.341
64.96000 1997.949
65.00000 1948.540
65.04000 1929.556
65.08000 1973.264
65.12000 1922.069
65.16000 1928.495
65.20000 1931.786
65.24000 1905.587
65.28000 1918.964
65.32000 1912.942
65.36000 1922.192
65.40000 1961.022
65.44000 1887.581
65.48000 1867.226
65.52000 1928.099
65.56000 1930.123
65.60000 1959.052
65.64000 1940.079
65.68000 1996.133
65.72000 2038.182
65.76000 2062.367
65.80000 2097.464
65.84000 2089.144
65.88000 2073.693
65.92000 1998.078
65.96000 1910.237
66.00000 1925.010
66.04000 1938.907
66.08000 1952.483
66.12000 1917.380
66.16000 1914.447
66.20000 1919.652
66.24000 1905.113
66.28000 1930.078
66.32000 1958.135
66.36000 1963.957
66.40000 1930.975
66.44000 1927.599
66.48000 1909.818
66.52000 1937.842
66.56000 1915.631
66.60000 1921.806
66.64000 1946.917
66.68000 1912.576
66.72000 1919.351
66.76000 1944.700
66.80000 1960.647
66.84000 1990.443
66.88000 1913.832
66.92000 1957.687
66.96000 1935.495
67.00000 1976.925
67.04000 1954.866
67.08000 1975.704
67.12000 1975.586
67.16000 1969.031
67.20000 2020.665
67.24000 1950.435
67.28000 1965.026
67.32000 1963.302
67.36000 2005.554
67.40000 1992.080
67.44000 1997.927
67.48000 1973.196
67.52000 1938.883
67.56000 1991.493
67.60000 1980.270
67.64000 1965.299
67.68000 1989.777
67.72000 1971.736
67.76000 1964.627
67.80000 1996.426
67.84000 1968.240
67.88000 2006.462
67.92000 1993.845
67.96000 1993.650
68.00000 2015.200
68.04000 2018.650
68.08000 1982.738
68.12000 2019.899
68.16000 1990.974
68.20000 2014.705
68.24000 2075.188
68.28000 2078.520
68.32000 2053.618
68.36000 2034.900
68.40000 2046.090
68.44000 2051.716
68.48000 2108.924
68.52000 2094.651
68.56000 2116.859
68.60000 2153.467
68.64000 2192.369
68.68000 2248.996
68.72000 2311.638
68.76000 2365.694
68.80000 2424.703
68.84000 2592.029
68.88000 2912.483
68.92000 4756.103
68.96000 10174.605
69.00000 15027.645
69.04000 15785.604
69.08000 15042.573
69.12000 15112.911
69.16000 15355.855
69.20000 12730.155
69.24000 9875.813
69.28000 8719.337
69.32000 7987.123
69.36000 6613.063
69.40000 4218.769
69.44000 2773.223
69.48000 2391.121
69.52000 2246.598
69.56000 2212.733
69.60000 2183.099
69.64000 2153.607
69.68000 2098.735
69.72000 2129.607
69.76000 2101.972
69.80000 2097.484
69.84000 2090.034
69.88000 2052.219
69.92000 2047.783
69.96000 2057.140
70.00000 2020.451