File: XRD/22-09-2025 Dep 2/XY Data/BTO_Mapping_Theta2Theta_22-09-2025_001_33_-18-019_8-678.xy
20.00000 562.865
20.04000 573.137
20.08000 560.923
20.12000 587.147
20.16000 556.189
20.20000 585.473
20.24000 573.329
20.28000 571.381
20.32000 559.021
20.36000 576.898
20.40000 589.455
20.44000 544.576
20.48000 577.101
20.52000 568.216
20.56000 557.179
20.60000 550.233
20.64000 566.745
20.68000 554.227
20.72000 570.479
20.76000 555.162
20.80000 570.947
20.84000 554.033
20.88000 557.334
20.92000 561.388
20.96000 569.673
21.00000 564.734
21.04000 562.966
21.08000 569.995
21.12000 570.831
21.16000 563.446
21.20000 550.922
21.24000 558.173
21.28000 565.351
21.32000 563.568
21.36000 553.940
21.40000 562.168
21.44000 571.309
21.48000 558.195
21.52000 574.065
21.56000 587.951
21.60000 607.514
21.64000 615.288
21.68000 611.139
21.72000 627.214
21.76000 664.024
21.80000 700.092
21.84000 720.405
21.88000 796.519
21.92000 808.916
21.96000 849.997
22.00000 884.288
22.04000 915.282
22.08000 871.559
22.12000 844.986
22.16000 803.800
22.20000 780.123
22.24000 713.279
22.28000 687.168
22.32000 652.485
22.36000 631.950
22.40000 609.587
22.44000 580.464
22.48000 561.079
22.52000 570.800
22.56000 548.260
22.60000 533.494
22.64000 564.876
22.68000 562.012
22.72000 534.050
22.76000 520.140
22.80000 535.563
22.84000 532.343
22.88000 522.883
22.92000 510.368
22.96000 530.498
23.00000 526.196
23.04000 501.242
23.08000 513.521
23.12000 541.002
23.16000 530.064
23.20000 520.315
23.24000 510.598
23.28000 516.325
23.32000 512.854
23.36000 506.086
23.40000 512.793
23.44000 498.377
23.48000 513.058
23.52000 499.299
23.56000 538.332
23.60000 506.913
23.64000 512.330
23.68000 515.505
23.72000 506.862
23.76000 514.824
23.80000 522.116
23.84000 486.176
23.88000 502.058
23.92000 499.492
23.96000 470.061
24.00000 492.258
24.04000 504.893
24.08000 516.071
24.12000 502.629
24.16000 501.335
24.20000 502.886
24.24000 498.455
24.28000 487.758
24.32000 486.986
24.36000 494.146
24.40000 494.686
24.44000 498.610
24.48000 488.283
24.52000 476.435
24.56000 487.407
24.60000 489.070
24.64000 473.931
24.68000 493.381
24.72000 463.817
24.76000 490.850
24.80000 489.093
24.84000 488.330
24.88000 480.205
24.92000 510.054
24.96000 482.389
25.00000 487.314
25.04000 481.185
25.08000 482.831
25.12000 488.005
25.16000 487.065
25.20000 472.587
25.24000 495.806
25.28000 477.219
25.32000 471.408
25.36000 475.914
25.40000 480.150
25.44000 473.721
25.48000 468.259
25.52000 469.181
25.56000 473.171
25.60000 451.547
25.64000 487.349
25.68000 461.822
25.72000 459.604
25.76000 463.846
25.80000 478.817
25.84000 464.272
25.88000 451.962
25.92000 468.362
25.96000 478.620
26.00000 455.130
26.04000 456.568
26.08000 471.199
26.12000 464.429
26.16000 481.399
26.20000 467.823
26.24000 451.928
26.28000 452.004
26.32000 481.235
26.36000 463.703
26.40000 464.808
26.44000 455.914
26.48000 442.471
26.52000 454.083
26.56000 458.752
26.60000 446.525
26.64000 454.007
26.68000 459.866
26.72000 447.454
26.76000 439.785
26.80000 445.322
26.84000 462.330
26.88000 457.687
26.92000 459.767
26.96000 438.348
27.00000 459.075
27.04000 452.102
27.08000 467.687
27.12000 439.877
27.16000 438.892
27.20000 460.893
27.24000 427.088
27.28000 440.903
27.32000 461.988
27.36000 442.867
27.40000 454.813
27.44000 462.120
27.48000 461.307
27.52000 426.457
27.56000 436.653
27.60000 449.929
27.64000 449.634
27.68000 447.202
27.72000 434.745
27.76000 439.420
27.80000 435.864
27.84000 416.830
27.88000 445.362
27.92000 447.511
27.96000 426.311
28.00000 443.746
28.04000 452.301
28.08000 437.953
28.12000 438.652
28.16000 433.385
28.20000 447.631
28.24000 430.296
28.28000 426.670
28.32000 429.862
28.36000 452.019
28.40000 446.720
28.44000 437.410
28.48000 421.882
28.52000 428.529
28.56000 410.843
28.60000 417.568
28.64000 429.089
28.68000 450.641
28.72000 423.335
28.76000 436.932
28.80000 411.338
28.84000 421.817
28.88000 433.150
28.92000 425.866
28.96000 405.333
29.00000 419.340
29.04000 418.625
29.08000 445.482
29.12000 417.085
29.16000 431.380
29.20000 420.318
29.24000 415.750
29.28000 413.828
29.32000 414.266
29.36000 432.517
29.40000 424.677
29.44000 411.104
29.48000 408.180
29.52000 427.102
29.56000 413.451
29.60000 417.399
29.64000 431.243
29.68000 421.218
29.72000 419.157
29.76000 417.572
29.80000 414.080
29.84000 423.057
29.88000 442.196
29.92000 447.226
29.96000 437.392
30.00000 447.364
30.04000 477.439
30.08000 444.687
30.12000 457.880
30.16000 447.006
30.20000 433.319
30.24000 443.173
30.28000 429.238
30.32000 429.450
30.36000 430.663
30.40000 433.227
30.44000 422.922
30.48000 425.606
30.52000 432.372
30.56000 437.353
30.60000 446.438
30.64000 444.268
30.68000 436.432
30.72000 468.177
30.76000 469.963
30.80000 473.706
30.84000 479.202
30.88000 498.154
30.92000 524.721
30.96000 557.160
31.00000 614.053
31.04000 719.330
31.08000 837.162
31.12000 1074.982
31.16000 1373.342
31.20000 1812.016
31.24000 2289.454
31.28000 2807.640
31.32000 3216.094
31.36000 3386.437
31.40000 3426.204
31.44000 3191.948
31.48000 2783.558
31.52000 2299.546
31.56000 1861.692
31.60000 1442.953
31.64000 1155.794
31.68000 907.413
31.72000 782.620
31.76000 658.590
31.80000 571.226
31.84000 545.670
31.88000 515.407
31.92000 477.542
31.96000 452.341
32.00000 446.761
32.04000 432.409
32.08000 441.078
32.12000 415.158
32.16000 410.224
32.20000 411.565
32.24000 417.627
32.28000 407.534
32.32000 416.474
32.36000 416.136
32.40000 388.680
32.44000 402.204
32.48000 408.805
32.52000 408.637
32.56000 405.557
32.60000 401.578
32.64000 401.035
32.68000 398.748
32.72000 396.779
32.76000 400.551
32.80000 410.920
32.84000 407.197
32.88000 429.447
32.92000 421.724
32.96000 424.959
33.00000 401.197
33.04000 402.924
33.08000 378.754
33.12000 374.925
33.16000 366.328
33.20000 371.190
33.24000 359.811
33.28000 352.194
33.32000 351.160
33.36000 374.540
33.40000 359.855
33.44000 334.275
33.48000 355.319
33.52000 348.347
33.56000 355.528
33.60000 352.539
33.64000 341.502
33.68000 332.982
33.72000 354.079
33.76000 355.678
33.80000 360.017
33.84000 360.900
33.88000 349.288
33.92000 346.116
33.96000 345.606
34.00000 336.709
34.04000 336.485
34.08000 342.479
34.12000 342.688
34.16000 337.147
34.20000 360.071
34.24000 338.064
34.28000 352.119
34.32000 339.189
34.36000 341.020
34.40000 340.971
34.44000 337.150
34.48000 316.793
34.52000 327.433
34.56000 332.219
34.60000 329.542
34.64000 326.675
34.68000 318.027
34.72000 331.206
34.76000 332.255
34.80000 325.937
34.84000 323.074
34.88000 320.029
34.92000 311.239
34.96000 312.778
35.00000 314.406
35.04000 328.215
35.08000 327.682
35.12000 332.083
35.16000 331.952
35.20000 302.777
35.24000 324.230
35.28000 325.817
35.32000 325.613
35.36000 300.835
35.40000 305.425
35.44000 313.309
35.48000 336.506
35.52000 328.154
35.56000 307.860
35.60000 331.901
35.64000 314.957
35.68000 301.366
35.72000 310.157
35.76000 319.169
35.80000 305.347
35.84000 301.865
35.88000 321.327
35.92000 313.927
35.96000 316.550
36.00000 325.214
36.04000 309.621
36.08000 317.546
36.12000 299.934
36.16000 304.040
36.20000 299.187
36.24000 291.830
36.28000 309.421
36.32000 316.049
36.36000 299.630
36.40000 297.436
36.44000 299.295
36.48000 293.546
36.52000 293.860
36.56000 307.600
36.60000 300.171
36.64000 295.488
36.68000 293.272
36.72000 302.665
36.76000 305.886
36.80000 312.002
36.84000 295.363
36.88000 309.902
36.92000 305.415
36.96000 316.221
37.00000 296.531
37.04000 307.128
37.08000 304.962
37.12000 302.389
37.16000 304.406
37.20000 314.257
37.24000 320.197
37.28000 304.503
37.32000 303.939
37.36000 301.799
37.40000 287.126
37.44000 302.379
37.48000 297.777
37.52000 298.624
37.56000 323.414
37.60000 310.353
37.64000 300.657
37.68000 297.671
37.72000 297.678
37.76000 296.285
37.80000 310.163
37.84000 307.668
37.88000 291.703
37.92000 311.198
37.96000 319.384
38.00000 313.957
38.04000 290.487
38.08000 313.306
38.12000 308.888
38.16000 313.917
38.20000 322.918
38.24000 349.093
38.28000 358.751
38.32000 381.695
38.36000 391.859
38.40000 421.317
38.44000 474.801
38.48000 541.885
38.52000 618.989
38.56000 682.791
38.60000 752.640
38.64000 782.844
38.68000 854.147
38.72000 766.892
38.76000 772.608
38.80000 702.081
38.84000 612.719
38.88000 531.602
38.92000 495.365
38.96000 440.540
39.00000 401.987
39.04000 380.725
39.08000 346.597
39.12000 334.581
39.16000 323.489
39.20000 317.722
39.24000 318.635
39.28000 295.677
39.32000 301.334
39.36000 307.612
39.40000 290.180
39.44000 287.446
39.48000 279.141
39.52000 276.420
39.56000 283.552
39.60000 274.021
39.64000 286.450
39.68000 273.375
39.72000 274.373
39.76000 263.244
39.80000 281.628
39.84000 272.871
39.88000 280.123
39.92000 274.634
39.96000 270.190
40.00000 271.643
40.04000 272.067
40.08000 267.874
40.12000 283.626
40.16000 265.311
40.20000 273.557
40.24000 281.259
40.28000 262.491
40.32000 277.267
40.36000 261.059
40.40000 273.811
40.44000 262.998
40.48000 272.001
40.52000 270.976
40.56000 259.264
40.60000 265.688
40.64000 270.455
40.68000 254.017
40.72000 258.960
40.76000 242.629
40.80000 259.531
40.84000 269.376
40.88000 246.385
40.92000 238.966
40.96000 258.001
41.00000 266.470
41.04000 273.408
41.08000 262.196
41.12000 251.578
41.16000 256.028
41.20000 249.223
41.24000 246.096
41.28000 254.116
41.32000 249.588
41.36000 252.355
41.40000 263.308
41.44000 249.771
41.48000 235.273
41.52000 242.636
41.56000 253.610
41.60000 251.009
41.64000 253.721
41.68000 248.157
41.72000 243.472
41.76000 253.654
41.80000 249.343
41.84000 247.484
41.88000 239.841
41.92000 231.248
41.96000 235.503
42.00000 249.114
42.04000 252.475
42.08000 240.941
42.12000 240.875
42.16000 244.144
42.20000 238.293
42.24000 240.779
42.28000 230.506
42.32000 246.237
42.36000 246.909
42.40000 246.842
42.44000 237.720
42.48000 248.833
42.52000 243.527
42.56000 234.497
42.60000 237.041
42.64000 234.291
42.68000 240.861
42.72000 249.022
42.76000 236.102
42.80000 239.435
42.84000 243.900
42.88000 225.616
42.92000 233.792
42.96000 240.143
43.00000 251.221
43.04000 239.880
43.08000 236.188
43.12000 233.360
43.16000 234.702
43.20000 237.872
43.24000 244.241
43.28000 244.229
43.32000 233.926
43.36000 239.185
43.40000 236.158
43.44000 221.398
43.48000 237.182
43.52000 226.037
43.56000 247.376
43.60000 228.733
43.64000 229.880
43.68000 229.800
43.72000 211.445
43.76000 229.284
43.80000 219.013
43.84000 236.135
43.88000 234.679
43.92000 239.045
43.96000 235.609
44.00000 238.104
44.04000 224.308
44.08000 233.699
44.12000 239.297
44.16000 235.366
44.20000 229.607
44.24000 256.564
44.28000 251.943
44.32000 244.471
44.36000 255.633
44.40000 244.974
44.44000 266.111
44.48000 246.477
44.52000 279.622
44.56000 272.175
44.60000 292.661
44.64000 304.722
44.68000 324.716
44.72000 350.168
44.76000 375.873
44.80000 412.995
44.84000 446.911
44.88000 462.997
44.92000 492.031
44.96000 532.360
45.00000 521.471
45.04000 536.491
45.08000 524.046
45.12000 490.523
45.16000 455.388
45.20000 451.637
45.24000 404.265
45.28000 381.071
45.32000 356.340
45.36000 329.408
45.40000 335.773
45.44000 325.128
45.48000 289.911
45.52000 291.583
45.56000 272.633
45.60000 272.456
45.64000 261.891
45.68000 261.181
45.72000 249.753
45.76000 246.524
45.80000 222.871
45.84000 240.832
45.88000 226.289
45.92000 228.571
45.96000 217.523
46.00000 217.324
46.04000 211.229
46.08000 211.562
46.12000 200.515
46.16000 218.542
46.20000 214.349
46.24000 214.203
46.28000 210.466
46.32000 204.416
46.36000 211.616
46.40000 198.134
46.44000 205.336
46.48000 211.383
46.52000 208.062
46.56000 216.813
46.60000 213.345
46.64000 214.336
46.68000 209.983
46.72000 215.012
46.76000 195.303
46.80000 197.072
46.84000 215.651
46.88000 205.493
46.92000 191.989
46.96000 201.010
47.00000 207.662
47.04000 193.923
47.08000 201.680
47.12000 197.218
47.16000 191.752
47.20000 198.533
47.24000 201.529
47.28000 210.202
47.32000 194.002
47.36000 199.907
47.40000 200.585
47.44000 196.245
47.48000 174.713
47.52000 199.617
47.56000 211.145
47.60000 193.561
47.64000 179.363
47.68000 191.462
47.72000 181.144
47.76000 198.823
47.80000 176.588
47.84000 189.229
47.88000 192.252
47.92000 188.874
47.96000 189.902
48.00000 206.538
48.04000 188.553
48.08000 192.507
48.12000 185.353
48.16000 186.889
48.20000 173.251
48.24000 188.745
48.28000 192.358
48.32000 181.406
48.36000 181.638
48.40000 196.280
48.44000 188.873
48.48000 184.604
48.52000 182.530
48.56000 195.269
48.60000 181.758
48.64000 193.652
48.68000 180.463
48.72000 187.507
48.76000 186.608
48.80000 180.360
48.84000 184.608
48.88000 195.712
48.92000 183.095
48.96000 183.514
49.00000 179.106
49.04000 197.703
49.08000 174.510
49.12000 172.592
49.16000 179.686
49.20000 176.636
49.24000 185.574
49.28000 190.380
49.32000 189.121
49.36000 182.219
49.40000 172.259
49.44000 175.320
49.48000 176.251
49.52000 181.663
49.56000 190.712
49.60000 191.737
49.64000 175.313
49.68000 176.177
49.72000 170.836
49.76000 172.064
49.80000 182.786
49.84000 190.034
49.88000 184.558
49.92000 175.575
49.96000 190.511
50.00000 189.122
50.04000 183.144
50.08000 185.926
50.12000 186.733
50.16000 188.180
50.20000 190.926
50.24000 194.445
50.28000 207.611
50.32000 206.770
50.36000 211.034
50.40000 214.451
50.44000 225.711
50.48000 245.787
50.52000 255.923
50.56000 271.293
50.60000 271.764
50.64000 285.221
50.68000 279.858
50.72000 281.995
50.76000 271.167
50.80000 242.682
50.84000 250.831
50.88000 239.709
50.92000 231.463
50.96000 211.816
51.00000 201.961
51.04000 202.303
51.08000 198.914
51.12000 191.203
51.16000 194.725
51.20000 180.474
51.24000 194.553
51.28000 183.779
51.32000 163.869
51.36000 171.837
51.40000 179.959
51.44000 188.900
51.48000 177.998
51.52000 177.295
51.56000 174.585
51.60000 171.958
51.64000 175.285
51.68000 181.943
51.72000 166.212
51.76000 159.962
51.80000 174.114
51.84000 167.110
51.88000 160.255
51.92000 173.319
51.96000 166.988
52.00000 174.256
52.04000 173.509
52.08000 171.788
52.12000 171.481
52.16000 172.156
52.20000 168.066
52.24000 172.440
52.28000 164.118
52.32000 161.730
52.36000 170.630
52.40000 162.535
52.44000 174.810
52.48000 147.944
52.52000 166.052
52.56000 166.443
52.60000 168.916
52.64000 170.253
52.68000 166.938
52.72000 164.201
52.76000 168.406
52.80000 164.492
52.84000 162.233
52.88000 160.268
52.92000 147.098
52.96000 154.374
53.00000 164.158
53.04000 166.167
53.08000 171.322
53.12000 163.334
53.16000 155.089
53.20000 161.895
53.24000 171.203
53.28000 170.010
53.32000 162.911
53.36000 163.273
53.40000 165.801
53.44000 161.037
53.48000 161.876
53.52000 158.007
53.56000 158.436
53.60000 163.760
53.64000 161.091
53.68000 167.281
53.72000 163.424
53.76000 155.049
53.80000 156.783
53.84000 172.129
53.88000 164.082
53.92000 166.274
53.96000 160.193
54.00000 154.689
54.04000 160.028
54.08000 153.241
54.12000 163.684
54.16000 161.570
54.20000 152.292
54.24000 165.328
54.28000 171.739
54.32000 157.167
54.36000 169.008
54.40000 153.698
54.44000 164.130
54.48000 161.625
54.52000 162.421
54.56000 164.583
54.60000 159.813
54.64000 165.450
54.68000 162.669
54.72000 169.379
54.76000 155.954
54.80000 160.511
54.84000 163.187
54.88000 172.158
54.92000 168.232
54.96000 168.372
55.00000 167.215
55.04000 166.909
55.08000 171.474
55.12000 173.652
55.16000 170.116
55.20000 170.314
55.24000 168.405
55.28000 177.804
55.32000 185.807
55.36000 199.111
55.40000 212.407
55.44000 219.274
55.48000 227.606
55.52000 245.155
55.56000 273.148
55.60000 287.274
55.64000 322.671
55.68000 386.409
55.72000 422.497
55.76000 475.184
55.80000 500.130
55.84000 530.506
55.88000 563.733
55.92000 593.968
55.96000 565.845
56.00000 548.447
56.04000 490.114
56.08000 474.530
56.12000 402.252
56.16000 382.683
56.20000 341.523
56.24000 307.022
56.28000 285.402
56.32000 252.226
56.36000 234.540
56.40000 218.379
56.44000 205.043
56.48000 193.032
56.52000 197.752
56.56000 193.871
56.60000 192.639
56.64000 185.791
56.68000 168.483
56.72000 172.080
56.76000 172.533
56.80000 163.853
56.84000 157.289
56.88000 150.844
56.92000 159.729
56.96000 151.670
57.00000 155.700
57.04000 161.645
57.08000 156.561
57.12000 152.531
57.16000 146.519
57.20000 151.444
57.24000 147.808
57.28000 145.235
57.32000 150.853
57.36000 157.383
57.40000 149.856
57.44000 153.861
57.48000 146.071
57.52000 135.481
57.56000 148.845
57.60000 145.039
57.64000 142.984
57.68000 144.342
57.72000 137.219
57.76000 141.379
57.80000 139.311
57.84000 135.962
57.88000 137.648
57.92000 142.371
57.96000 143.393
58.00000 154.588
58.04000 143.924
58.08000 143.872
58.12000 148.775
58.16000 142.256
58.20000 140.276
58.24000 147.898
58.28000 143.284
58.32000 142.443
58.36000 143.055
58.40000 148.370
58.44000 141.235
58.48000 141.597
58.52000 136.867
58.56000 137.205
58.60000 138.183
58.64000 146.531
58.68000 144.507
58.72000 137.953
58.76000 160.525
58.80000 134.125
58.84000 136.689
58.88000 140.326
58.92000 147.151
58.96000 140.127
59.00000 137.088
59.04000 132.649
59.08000 135.701
59.12000 144.026
59.16000 135.424
59.20000 128.845
59.24000 131.133
59.28000 145.959
59.32000 139.528
59.36000 136.427
59.40000 138.354
59.44000 131.916
59.48000 130.582
59.52000 133.949
59.56000 132.021
59.60000 138.562
59.64000 134.618
59.68000 135.930
59.72000 135.221
59.76000 135.121
59.80000 130.286
59.84000 129.569
59.88000 141.577
59.92000 137.769
59.96000 129.060
60.00000 131.863
60.04000 133.417
60.08000 126.108
60.12000 130.072
60.16000 139.842
60.20000 136.486
60.24000 129.121
60.28000 128.428
60.32000 145.890
60.36000 132.789
60.40000 137.762
60.44000 134.988
60.48000 138.795
60.52000 136.424
60.56000 142.310
60.60000 133.731
60.64000 126.750
60.68000 134.947
60.72000 131.466
60.76000 129.277
60.80000 137.999
60.84000 127.419
60.88000 133.669
60.92000 131.804
60.96000 140.130
61.00000 138.848
61.04000 134.721
61.08000 146.939
61.12000 141.971
61.16000 139.324
61.20000 144.905
61.24000 138.487
61.28000 142.021
61.32000 139.587
61.36000 148.696
61.40000 144.337
61.44000 158.105
61.48000 151.656
61.52000 189.447
61.56000 247.043
61.60000 314.391
61.64000 357.399
61.68000 382.656
61.72000 365.350
61.76000 342.541
61.80000 277.572
61.84000 199.102
61.88000 165.889
61.92000 142.114
61.96000 146.813
62.00000 145.175
62.04000 140.579
62.08000 140.941
62.12000 140.742
62.16000 135.595
62.20000 131.282
62.24000 147.617
62.28000 142.815
62.32000 145.169
62.36000 139.234
62.40000 162.391
62.44000 154.552
62.48000 147.093
62.52000 135.179
62.56000 148.941
62.60000 139.400
62.64000 136.511
62.68000 148.896
62.72000 139.450
62.76000 143.989
62.80000 149.598
62.84000 143.534
62.88000 141.621
62.92000 148.331
62.96000 149.705
63.00000 143.795
63.04000 161.150
63.08000 152.148
63.12000 148.789
63.16000 145.486
63.20000 147.661
63.24000 152.875
63.28000 155.744
63.32000 156.162
63.36000 145.196
63.40000 140.536
63.44000 149.305
63.48000 158.126
63.52000 169.302
63.56000 160.071
63.60000 147.657
63.64000 161.938
63.68000 164.472
63.72000 145.843
63.76000 159.745
63.80000 161.974
63.84000 162.179
63.88000 148.598
63.92000 147.889
63.96000 155.461
64.00000 162.873
64.04000 159.853
64.08000 162.944
64.12000 165.485
64.16000 156.627
64.20000 176.823
64.24000 174.402
64.28000 169.578
64.32000 170.688
64.36000 174.430
64.40000 175.357
64.44000 172.560
64.48000 177.737
64.52000 179.308
64.56000 171.091
64.60000 176.220
64.64000 175.707
64.68000 177.551
64.72000 185.548
64.76000 185.009
64.80000 183.717
64.84000 192.852
64.88000 190.963
64.92000 191.094
64.96000 204.951
65.00000 195.134
65.04000 215.676
65.08000 223.148
65.12000 238.245
65.16000 231.300
65.20000 252.232
65.24000 274.285
65.28000 295.506
65.32000 326.519
65.36000 328.567
65.40000 350.110
65.44000 389.487
65.48000 408.107
65.52000 419.675
65.56000 442.823
65.60000 460.119
65.64000 513.227
65.68000 636.667
65.72000 849.366
65.76000 1142.960
65.80000 1410.370
65.84000 1570.327
65.88000 1607.705
65.92000 1504.214
65.96000 1264.087
66.00000 878.904
66.04000 565.892
66.08000 448.166
66.12000 386.613
66.16000 370.661
66.20000 369.029
66.24000 395.523
66.28000 425.500
66.32000 487.927
66.36000 560.207
66.40000 570.862
66.44000 578.409
66.48000 550.818
66.52000 518.325
66.56000 450.568
66.60000 401.176
66.64000 370.615
66.68000 369.037
66.72000 361.981
66.76000 347.698
66.80000 372.986
66.84000 374.154
66.88000 380.840
66.92000 387.611
66.96000 391.877
67.00000 393.380
67.04000 404.159
67.08000 407.166
67.12000 412.044
67.16000 414.228
67.20000 438.615
67.24000 421.862
67.28000 445.211
67.32000 450.202
67.36000 444.350
67.40000 466.516
67.44000 486.690
67.48000 486.441
67.52000 484.868
67.56000 513.157
67.60000 501.572
67.64000 519.390
67.68000 536.817
67.72000 546.489
67.76000 562.766
67.80000 550.630
67.84000 542.811
67.88000 586.628
67.92000 613.101
67.96000 627.788
68.00000 632.079
68.04000 636.729
68.08000 651.801
68.12000 686.146
68.16000 694.713
68.20000 702.381
68.24000 728.400
68.28000 745.356
68.32000 792.471
68.36000 809.837
68.40000 845.158
68.44000 886.361
68.48000 959.131
68.52000 1040.603
68.56000 1124.747
68.60000 1294.074
68.64000 1543.813
68.68000 1891.836
68.72000 2161.522
68.76000 2561.963
68.80000 3004.609
68.84000 3753.959
68.88000 5274.719
68.92000 10167.358
68.96000 23781.920
69.00000 50103.031
69.04000 76411.188
69.08000 89388.750
69.12000 92819.188
69.16000 96622.781
69.20000 93684.297
69.24000 77776.016
69.28000 60171.883
69.32000 49673.738
69.36000 44344.773
69.40000 35283.492
69.44000 21213.057
69.48000 9802.052
69.52000 4420.488
69.56000 2674.155
69.60000 2024.584
69.64000 1667.962
69.68000 1452.950
69.72000 1311.782
69.76000 1171.176
69.80000 1080.159
69.84000 1010.288
69.88000 953.946
69.92000 905.268
69.96000 838.773
70.00000 832.357