File: XRD/22-09-2025 Dep 2/XY Data/BTO_Mapping_Theta2Theta_22-09-2025_001_18_4-450_19-499.xy
20.00000 570.324
20.04000 576.217
20.08000 542.384
20.12000 585.107
20.16000 577.786
20.20000 577.190
20.24000 566.492
20.28000 566.774
20.32000 562.032
20.36000 583.870
20.40000 551.381
20.44000 563.148
20.48000 561.662
20.52000 566.812
20.56000 554.561
20.60000 559.996
20.64000 549.816
20.68000 553.812
20.72000 593.463
20.76000 553.285
20.80000 542.842
20.84000 574.916
20.88000 565.377
20.92000 567.993
20.96000 571.022
21.00000 569.622
21.04000 556.721
21.08000 561.109
21.12000 534.899
21.16000 550.847
21.20000 538.699
21.24000 546.437
21.28000 548.280
21.32000 555.542
21.36000 533.189
21.40000 546.688
21.44000 535.671
21.48000 575.121
21.52000 567.413
21.56000 560.378
21.60000 565.009
21.64000 590.951
21.68000 590.058
21.72000 598.874
21.76000 602.440
21.80000 614.799
21.84000 629.598
21.88000 659.982
21.92000 708.755
21.96000 753.916
22.00000 773.357
22.04000 778.750
22.08000 780.182
22.12000 790.738
22.16000 819.190
22.20000 737.072
22.24000 700.338
22.28000 679.261
22.32000 663.143
22.36000 629.937
22.40000 595.305
22.44000 579.790
22.48000 573.253
22.52000 566.460
22.56000 557.176
22.60000 556.024
22.64000 547.238
22.68000 546.444
22.72000 548.249
22.76000 526.193
22.80000 530.276
22.84000 537.457
22.88000 526.777
22.92000 499.828
22.96000 526.250
23.00000 528.817
23.04000 516.387
23.08000 507.134
23.12000 529.044
23.16000 516.603
23.20000 522.696
23.24000 522.353
23.28000 509.448
23.32000 516.688
23.36000 523.806
23.40000 518.408
23.44000 501.070
23.48000 504.730
23.52000 502.065
23.56000 504.878
23.60000 514.889
23.64000 510.345
23.68000 499.682
23.72000 509.208
23.76000 507.743
23.80000 519.363
23.84000 497.816
23.88000 488.375
23.92000 500.466
23.96000 502.607
24.00000 510.630
24.04000 518.148
24.08000 517.904
24.12000 508.857
24.16000 497.659
24.20000 518.168
24.24000 495.513
24.28000 503.011
24.32000 495.944
24.36000 485.991
24.40000 501.929
24.44000 485.189
24.48000 498.450
24.52000 491.694
24.56000 472.298
24.60000 501.240
24.64000 478.503
24.68000 487.514
24.72000 475.208
24.76000 488.771
24.80000 496.645
24.84000 475.046
24.88000 466.532
24.92000 459.466
24.96000 475.789
25.00000 476.299
25.04000 485.870
25.08000 489.503
25.12000 478.383
25.16000 449.890
25.20000 449.694
25.24000 455.996
25.28000 472.478
25.32000 484.516
25.36000 471.271
25.40000 466.291
25.44000 467.925
25.48000 467.724
25.52000 465.411
25.56000 447.446
25.60000 455.675
25.64000 474.770
25.68000 460.248
25.72000 469.167
25.76000 497.288
25.80000 480.428
25.84000 476.549
25.88000 472.380
25.92000 471.082
25.96000 448.072
26.00000 460.787
26.04000 445.634
26.08000 445.500
26.12000 463.766
26.16000 468.320
26.20000 452.107
26.24000 469.087
26.28000 441.523
26.32000 461.077
26.36000 451.794
26.40000 462.591
26.44000 459.765
26.48000 474.087
26.52000 450.029
26.56000 450.301
26.60000 470.837
26.64000 484.196
26.68000 442.351
26.72000 456.858
26.76000 453.354
26.80000 452.628
26.84000 462.538
26.88000 460.019
26.92000 457.988
26.96000 452.442
27.00000 438.969
27.04000 426.595
27.08000 452.482
27.12000 456.400
27.16000 454.830
27.20000 439.649
27.24000 442.815
27.28000 442.148
27.32000 435.502
27.36000 437.348
27.40000 435.611
27.44000 446.312
27.48000 427.779
27.52000 423.138
27.56000 432.708
27.60000 442.411
27.64000 435.008
27.68000 418.283
27.72000 430.040
27.76000 435.985
27.80000 426.587
27.84000 436.992
27.88000 416.146
27.92000 441.051
27.96000 423.827
28.00000 430.179
28.04000 435.082
28.08000 425.898
28.12000 416.856
28.16000 427.866
28.20000 424.627
28.24000 435.108
28.28000 433.477
28.32000 424.895
28.36000 440.540
28.40000 426.866
28.44000 431.443
28.48000 433.256
28.52000 412.305
28.56000 411.598
28.60000 434.592
28.64000 430.994
28.68000 428.389
28.72000 415.771
28.76000 443.794
28.80000 415.088
28.84000 412.979
28.88000 396.298
28.92000 409.170
28.96000 412.433
29.00000 418.094
29.04000 423.113
29.08000 417.840
29.12000 408.414
29.16000 415.216
29.20000 423.115
29.24000 415.371
29.28000 423.359
29.32000 429.609
29.36000 420.483
29.40000 426.379
29.44000 432.449
29.48000 426.945
29.52000 412.501
29.56000 410.674
29.60000 413.903
29.64000 416.594
29.68000 431.999
29.72000 424.084
29.76000 431.386
29.80000 423.618
29.84000 427.917
29.88000 432.364
29.92000 414.257
29.96000 448.828
30.00000 462.011
30.04000 430.889
30.08000 453.206
30.12000 442.454
30.16000 451.778
30.20000 440.328
30.24000 431.764
30.28000 471.342
30.32000 453.123
30.36000 461.593
30.40000 442.703
30.44000 443.887
30.48000 433.577
30.52000 432.089
30.56000 430.243
30.60000 450.520
30.64000 443.875
30.68000 460.124
30.72000 467.306
30.76000 491.217
30.80000 472.280
30.84000 502.045
30.88000 489.356
30.92000 521.508
30.96000 582.657
31.00000 662.022
31.04000 687.422
31.08000 777.816
31.12000 955.255
31.16000 1228.556
31.20000 1575.420
31.24000 2019.664
31.28000 2523.551
31.32000 2945.791
31.36000 3307.094
31.40000 3448.593
31.44000 3283.329
31.48000 3043.806
31.52000 2584.988
31.56000 2131.405
31.60000 1681.663
31.64000 1290.401
31.68000 1083.019
31.72000 866.336
31.76000 756.128
31.80000 668.944
31.84000 601.355
31.88000 524.191
31.92000 504.941
31.96000 491.554
32.00000 449.148
32.04000 447.950
32.08000 412.985
32.12000 434.110
32.16000 445.846
32.20000 418.578
32.24000 411.281
32.28000 408.452
32.32000 424.039
32.36000 396.441
32.40000 403.201
32.44000 388.473
32.48000 397.004
32.52000 402.802
32.56000 405.450
32.60000 399.941
32.64000 387.718
32.68000 393.238
32.72000 395.459
32.76000 396.261
32.80000 393.405
32.84000 394.398
32.88000 402.069
32.92000 400.613
32.96000 403.450
33.00000 397.861
33.04000 389.269
33.08000 378.483
33.12000 373.904
33.16000 358.934
33.20000 364.427
33.24000 353.868
33.28000 348.678
33.32000 345.305
33.36000 351.440
33.40000 351.067
33.44000 342.237
33.48000 372.209
33.52000 357.717
33.56000 345.763
33.60000 356.337
33.64000 359.115
33.68000 362.672
33.72000 329.580
33.76000 343.063
33.80000 346.524
33.84000 331.741
33.88000 341.158
33.92000 335.295
33.96000 335.756
34.00000 347.250
34.04000 340.272
34.08000 341.573
34.12000 333.556
34.16000 346.635
34.20000 324.280
34.24000 345.423
34.28000 343.826
34.32000 344.606
34.36000 328.188
34.40000 343.882
34.44000 339.547
34.48000 330.645
34.52000 337.350
34.56000 318.620
34.60000 332.704
34.64000 329.818
34.68000 333.238
34.72000 329.192
34.76000 342.028
34.80000 323.108
34.84000 342.848
34.88000 329.014
34.92000 330.539
34.96000 299.337
35.00000 322.600
35.04000 332.758
35.08000 314.228
35.12000 328.004
35.16000 326.455
35.20000 304.796
35.24000 312.760
35.28000 321.472
35.32000 320.212
35.36000 329.885
35.40000 329.075
35.44000 309.904
35.48000 310.848
35.52000 300.684
35.56000 320.545
35.60000 297.998
35.64000 302.910
35.68000 307.179
35.72000 301.058
35.76000 336.149
35.80000 305.656
35.84000 298.538
35.88000 309.438
35.92000 296.574
35.96000 307.806
36.00000 307.354
36.04000 298.391
36.08000 309.631
36.12000 293.080
36.16000 303.700
36.20000 289.311
36.24000 304.437
36.28000 292.094
36.32000 319.215
36.36000 310.816
36.40000 298.473
36.44000 305.917
36.48000 303.775
36.52000 293.169
36.56000 301.329
36.60000 295.553
36.64000 298.037
36.68000 306.716
36.72000 306.385
36.76000 290.036
36.80000 311.843
36.84000 305.405
36.88000 312.614
36.92000 301.458
36.96000 305.678
37.00000 301.612
37.04000 288.385
37.08000 310.021
37.12000 309.055
37.16000 298.704
37.20000 303.809
37.24000 290.990
37.28000 290.248
37.32000 310.868
37.36000 293.963
37.40000 286.591
37.44000 284.751
37.48000 293.558
37.52000 292.679
37.56000 289.183
37.60000 290.472
37.64000 299.890
37.68000 294.401
37.72000 296.937
37.76000 310.875
37.80000 288.856
37.84000 286.719
37.88000 299.261
37.92000 292.806
37.96000 295.857
38.00000 297.561
38.04000 305.450
38.08000 289.327
38.12000 318.128
38.16000 303.832
38.20000 295.316
38.24000 308.808
38.28000 335.695
38.32000 330.710
38.36000 371.198
38.40000 388.393
38.44000 405.973
38.48000 463.002
38.52000 547.504
38.56000 632.140
38.60000 739.931
38.64000 870.220
38.68000 947.772
38.72000 989.036
38.76000 999.781
38.80000 928.392
38.84000 840.515
38.88000 752.130
38.92000 607.212
38.96000 501.432
39.00000 436.956
39.04000 391.585
39.08000 342.583
39.12000 344.836
39.16000 313.028
39.20000 305.590
39.24000 309.169
39.28000 295.251
39.32000 296.936
39.36000 277.127
39.40000 273.865
39.44000 280.078
39.48000 276.831
39.52000 271.704
39.56000 270.536
39.60000 281.349
39.64000 268.520
39.68000 283.755
39.72000 280.465
39.76000 265.199
39.80000 263.220
39.84000 284.175
39.88000 282.713
39.92000 273.845
39.96000 294.749
40.00000 273.746
40.04000 265.568
40.08000 274.165
40.12000 279.988
40.16000 271.070
40.20000 271.839
40.24000 266.812
40.28000 251.510
40.32000 255.084
40.36000 245.409
40.40000 262.394
40.44000 257.472
40.48000 258.113
40.52000 253.637
40.56000 249.930
40.60000 253.894
40.64000 251.669
40.68000 257.295
40.72000 261.486
40.76000 237.490
40.80000 258.874
40.84000 257.665
40.88000 254.451
40.92000 265.618
40.96000 256.147
41.00000 255.592
41.04000 248.939
41.08000 243.525
41.12000 253.269
41.16000 254.214
41.20000 243.552
41.24000 253.306
41.28000 257.743
41.32000 255.112
41.36000 246.632
41.40000 247.543
41.44000 246.966
41.48000 243.261
41.52000 249.673
41.56000 248.409
41.60000 240.831
41.64000 240.672
41.68000 241.696
41.72000 246.173
41.76000 244.625
41.80000 252.701
41.84000 262.962
41.88000 242.501
41.92000 237.843
41.96000 246.480
42.00000 248.054
42.04000 237.302
42.08000 238.088
42.12000 247.967
42.16000 227.167
42.20000 234.956
42.24000 243.692
42.28000 229.326
42.32000 230.306
42.36000 246.861
42.40000 233.511
42.44000 231.392
42.48000 230.421
42.52000 256.003
42.56000 224.279
42.60000 236.893
42.64000 229.708
42.68000 243.254
42.72000 241.658
42.76000 239.386
42.80000 231.741
42.84000 243.491
42.88000 229.110
42.92000 243.019
42.96000 221.587
43.00000 240.457
43.04000 236.514
43.08000 240.356
43.12000 228.841
43.16000 229.622
43.20000 217.908
43.24000 235.907
43.28000 219.169
43.32000 234.001
43.36000 227.261
43.40000 222.837
43.44000 223.091
43.48000 223.547
43.52000 235.177
43.56000 215.546
43.60000 229.291
43.64000 212.544
43.68000 231.031
43.72000 228.135
43.76000 231.250
43.80000 214.946
43.84000 238.114
43.88000 232.445
43.92000 231.701
43.96000 223.114
44.00000 217.471
44.04000 215.363
44.08000 227.549
44.12000 222.268
44.16000 222.542
44.20000 218.023
44.24000 230.656
44.28000 239.236
44.32000 230.883
44.36000 235.856
44.40000 251.090
44.44000 246.552
44.48000 243.222
44.52000 254.570
44.56000 257.342
44.60000 252.299
44.64000 248.888
44.68000 259.839
44.72000 253.415
44.76000 259.700
44.80000 297.667
44.84000 305.413
44.88000 327.313
44.92000 369.068
44.96000 397.809
45.00000 388.318
45.04000 400.223
45.08000 440.028
45.12000 423.101
45.16000 419.185
45.20000 415.346
45.24000 417.677
45.28000 372.760
45.32000 361.442
45.36000 347.769
45.40000 309.711
45.44000 304.355
45.48000 300.153
45.52000 288.703
45.56000 281.732
45.60000 274.268
45.64000 266.099
45.68000 268.255
45.72000 256.872
45.76000 242.487
45.80000 238.979
45.84000 230.768
45.88000 243.169
45.92000 232.093
45.96000 222.098
46.00000 239.051
46.04000 217.060
46.08000 213.984
46.12000 219.523
46.16000 206.983
46.20000 216.284
46.24000 206.574
46.28000 200.661
46.32000 208.523
46.36000 206.230
46.40000 194.954
46.44000 199.037
46.48000 197.319
46.52000 214.755
46.56000 215.188
46.60000 211.767
46.64000 202.698
46.68000 197.791
46.72000 190.592
46.76000 194.633
46.80000 193.004
46.84000 192.762
46.88000 198.597
46.92000 196.862
46.96000 203.359
47.00000 199.220
47.04000 193.836
47.08000 199.268
47.12000 200.078
47.16000 191.530
47.20000 194.335
47.24000 183.336
47.28000 189.037
47.32000 188.987
47.36000 206.057
47.40000 188.643
47.44000 195.819
47.48000 186.295
47.52000 188.820
47.56000 184.239
47.60000 191.810
47.64000 182.521
47.68000 189.220
47.72000 185.016
47.76000 192.926
47.80000 195.730
47.84000 188.055
47.88000 176.890
47.92000 190.397
47.96000 187.441
48.00000 189.291
48.04000 182.043
48.08000 192.448
48.12000 183.173
48.16000 190.208
48.20000 183.958
48.24000 181.669
48.28000 187.097
48.32000 184.816
48.36000 191.191
48.40000 174.173
48.44000 185.778
48.48000 178.092
48.52000 196.252
48.56000 192.582
48.60000 176.742
48.64000 182.486
48.68000 179.238
48.72000 181.418
48.76000 180.783
48.80000 186.905
48.84000 186.621
48.88000 186.214
48.92000 187.435
48.96000 178.865
49.00000 181.386
49.04000 175.996
49.08000 173.671
49.12000 183.886
49.16000 187.210
49.20000 167.255
49.24000 169.150
49.28000 177.495
49.32000 182.205
49.36000 183.947
49.40000 177.470
49.44000 177.053
49.48000 171.013
49.52000 177.671
49.56000 177.590
49.60000 185.259
49.64000 182.387
49.68000 184.985
49.72000 177.680
49.76000 174.821
49.80000 179.580
49.84000 180.473
49.88000 178.946
49.92000 171.635
49.96000 187.147
50.00000 189.372
50.04000 177.240
50.08000 172.415
50.12000 179.599
50.16000 189.328
50.20000 189.957
50.24000 183.308
50.28000 180.255
50.32000 199.862
50.36000 187.914
50.40000 184.806
50.44000 197.891
50.48000 203.904
50.52000 205.293
50.56000 217.970
50.60000 237.517
50.64000 245.280
50.68000 257.175
50.72000 256.726
50.76000 255.242
50.80000 252.864
50.84000 261.727
50.88000 258.047
50.92000 237.847
50.96000 227.489
51.00000 209.389
51.04000 199.255
51.08000 197.620
51.12000 187.244
51.16000 191.547
51.20000 183.986
51.24000 187.301
51.28000 170.119
51.32000 176.156
51.36000 175.912
51.40000 191.462
51.44000 184.557
51.48000 183.948
51.52000 174.769
51.56000 169.048
51.60000 167.044
51.64000 169.609
51.68000 173.134
51.72000 178.871
51.76000 159.955
51.80000 165.947
51.84000 156.584
51.88000 170.012
51.92000 155.818
51.96000 158.085
52.00000 161.376
52.04000 156.588
52.08000 159.517
52.12000 154.186
52.16000 162.192
52.20000 168.816
52.24000 164.375
52.28000 165.901
52.32000 156.999
52.36000 149.309
52.40000 164.983
52.44000 157.006
52.48000 153.079
52.52000 159.998
52.56000 168.264
52.60000 160.033
52.64000 164.748
52.68000 151.900
52.72000 163.115
52.76000 153.766
52.80000 155.088
52.84000 164.217
52.88000 159.093
52.92000 157.455
52.96000 167.655
53.00000 154.384
53.04000 155.508
53.08000 147.465
53.12000 163.998
53.16000 163.298
53.20000 169.320
53.24000 158.518
53.28000 159.882
53.32000 151.322
53.36000 159.255
53.40000 165.373
53.44000 167.072
53.48000 166.200
53.52000 162.039
53.56000 163.038
53.60000 161.205
53.64000 165.791
53.68000 156.595
53.72000 167.410
53.76000 158.151
53.80000 156.098
53.84000 157.374
53.88000 165.888
53.92000 162.018
53.96000 158.750
54.00000 155.119
54.04000 150.955
54.08000 163.531
54.12000 163.813
54.16000 158.951
54.20000 157.402
54.24000 149.855
54.28000 149.105
54.32000 145.689
54.36000 147.881
54.40000 153.213
54.44000 154.950
54.48000 150.928
54.52000 160.658
54.56000 163.956
54.60000 158.240
54.64000 155.057
54.68000 160.570
54.72000 158.623
54.76000 152.191
54.80000 157.484
54.84000 158.273
54.88000 157.536
54.92000 166.380
54.96000 172.444
55.00000 158.490
55.04000 161.687
55.08000 162.980
55.12000 159.605
55.16000 160.811
55.20000 176.539
55.24000 173.564
55.28000 169.406
55.32000 171.807
55.36000 174.690
55.40000 183.706
55.44000 184.318
55.48000 189.495
55.52000 202.555
55.56000 214.639
55.60000 228.199
55.64000 247.716
55.68000 259.054
55.72000 309.912
55.76000 352.390
55.80000 397.792
55.84000 442.817
55.88000 475.478
55.92000 501.010
55.96000 563.711
56.00000 544.439
56.04000 555.917
56.08000 510.750
56.12000 468.490
56.16000 426.762
56.20000 381.300
56.24000 343.164
56.28000 297.576
56.32000 272.913
56.36000 251.844
56.40000 236.950
56.44000 206.562
56.48000 196.267
56.52000 206.600
56.56000 198.495
56.60000 187.846
56.64000 192.311
56.68000 178.310
56.72000 173.131
56.76000 172.803
56.80000 155.460
56.84000 160.200
56.88000 157.460
56.92000 166.107
56.96000 153.763
57.00000 156.614
57.04000 148.400
57.08000 152.897
57.12000 136.462
57.16000 143.984
57.20000 148.144
57.24000 146.671
57.28000 150.431
57.32000 146.898
57.36000 136.891
57.40000 136.388
57.44000 150.668
57.48000 157.885
57.52000 147.294
57.56000 139.731
57.60000 149.291
57.64000 146.616
57.68000 146.794
57.72000 143.994
57.76000 150.067
57.80000 140.140
57.84000 144.015
57.88000 141.177
57.92000 144.801
57.96000 144.906
58.00000 148.203
58.04000 144.863
58.08000 149.448
58.12000 142.137
58.16000 129.469
58.20000 130.209
58.24000 143.422
58.28000 132.550
58.32000 136.791
58.36000 143.481
58.40000 136.504
58.44000 136.857
58.48000 136.223
58.52000 132.031
58.56000 141.872
58.60000 135.477
58.64000 124.129
58.68000 134.051
58.72000 140.288
58.76000 147.001
58.80000 136.558
58.84000 123.637
58.88000 129.574
58.92000 132.647
58.96000 123.557
59.00000 141.868
59.04000 138.520
59.08000 135.455
59.12000 137.880
59.16000 132.436
59.20000 138.919
59.24000 135.025
59.28000 143.841
59.32000 137.185
59.36000 132.363
59.40000 137.676
59.44000 147.128
59.48000 127.886
59.52000 137.612
59.56000 135.713
59.60000 135.950
59.64000 136.982
59.68000 131.390
59.72000 136.712
59.76000 144.544
59.80000 126.124
59.84000 136.709
59.88000 140.619
59.92000 130.180
59.96000 133.705
60.00000 142.414
60.04000 133.661
60.08000 132.355
60.12000 132.346
60.16000 126.062
60.20000 124.363
60.24000 126.042
60.28000 144.897
60.32000 121.180
60.36000 130.587
60.40000 134.427
60.44000 137.135
60.48000 129.254
60.52000 134.459
60.56000 124.203
60.60000 132.570
60.64000 128.594
60.68000 126.847
60.72000 133.382
60.76000 140.903
60.80000 129.371
60.84000 134.255
60.88000 142.711
60.92000 136.219
60.96000 132.918
61.00000 142.621
61.04000 126.217
61.08000 138.266
61.12000 137.661
61.16000 140.616
61.20000 139.661
61.24000 141.041
61.28000 140.423
61.32000 135.545
61.36000 136.508
61.40000 148.263
61.44000 134.210
61.48000 164.323
61.52000 183.462
61.56000 221.005
61.60000 263.865
61.64000 296.041
61.68000 307.380
61.72000 318.692
61.76000 294.973
61.80000 248.537
61.84000 191.674
61.88000 173.484
61.92000 149.716
61.96000 159.892
62.00000 143.394
62.04000 142.955
62.08000 150.680
62.12000 142.689
62.16000 140.199
62.20000 135.746
62.24000 139.415
62.28000 141.589
62.32000 141.722
62.36000 146.608
62.40000 149.383
62.44000 145.287
62.48000 144.830
62.52000 142.821
62.56000 135.940
62.60000 139.206
62.64000 143.674
62.68000 151.159
62.72000 146.977
62.76000 143.142
62.80000 138.433
62.84000 151.678
62.88000 149.584
62.92000 142.792
62.96000 146.187
63.00000 148.472
63.04000 149.120
63.08000 145.627
63.12000 150.655
63.16000 141.379
63.20000 148.896
63.24000 137.168
63.28000 146.948
63.32000 145.164
63.36000 153.053
63.40000 151.789
63.44000 158.983
63.48000 154.291
63.52000 155.469
63.56000 148.554
63.60000 148.034
63.64000 155.526
63.68000 159.171
63.72000 155.332
63.76000 155.976
63.80000 149.500
63.84000 153.924
63.88000 154.647
63.92000 159.294
63.96000 154.038
64.00000 153.886
64.04000 150.381
64.08000 164.044
64.12000 157.967
64.16000 169.818
64.20000 159.746
64.24000 175.085
64.28000 170.243
64.32000 172.743
64.36000 168.145
64.40000 165.364
64.44000 161.261
64.48000 165.614
64.52000 179.638
64.56000 175.071
64.60000 171.883
64.64000 171.847
64.68000 177.553
64.72000 168.008
64.76000 176.203
64.80000 177.697
64.84000 189.191
64.88000 180.533
64.92000 197.969
64.96000 192.470
65.00000 187.172
65.04000 201.372
65.08000 212.821
65.12000 209.205
65.16000 222.059
65.20000 238.018
65.24000 247.217
65.28000 265.504
65.32000 276.610
65.36000 307.211
65.40000 333.813
65.44000 345.246
65.48000 371.798
65.52000 390.530
65.56000 432.369
65.60000 464.489
65.64000 500.875
65.68000 575.829
65.72000 768.119
65.76000 1006.845
65.80000 1202.212
65.84000 1306.291
65.88000 1321.204
65.92000 1277.684
65.96000 1082.567
66.00000 759.904
66.04000 547.401
66.08000 421.544
66.12000 354.145
66.16000 318.414
66.20000 350.061
66.24000 360.194
66.28000 371.960
66.32000 437.743
66.36000 472.790
66.40000 495.706
66.44000 505.402
66.48000 495.772
66.52000 450.250
66.56000 399.654
66.60000 359.505
66.64000 339.357
66.68000 340.312
66.72000 324.403
66.76000 328.511
66.80000 336.135
66.84000 348.030
66.88000 365.477
66.92000 355.962
66.96000 361.373
67.00000 354.344
67.04000 365.272
67.08000 393.038
67.12000 371.000
67.16000 396.752
67.20000 386.516
67.24000 404.668
67.28000 414.458
67.32000 428.149
67.36000 418.007
67.40000 432.226
67.44000 455.935
67.48000 450.164
67.52000 460.024
67.56000 478.521
67.60000 471.422
67.64000 480.225
67.68000 495.196
67.72000 500.107
67.76000 499.817
67.80000 529.758
67.84000 538.683
67.88000 525.092
67.92000 530.493
67.96000 567.200
68.00000 580.455
68.04000 579.979
68.08000 593.630
68.12000 608.530
68.16000 631.246
68.20000 645.975
68.24000 652.793
68.28000 692.429
68.32000 714.217
68.36000 699.190
68.40000 772.874
68.44000 797.189
68.48000 855.094
68.52000 890.239
68.56000 982.776
68.60000 1093.349
68.64000 1279.055
68.68000 1598.463
68.72000 1837.120
68.76000 2171.281
68.80000 2507.464
68.84000 2943.080
68.88000 4070.483
68.92000 7571.549
68.96000 17975.957
69.00000 38961.379
69.04000 60497.074
69.08000 71398.883
69.12000 73983.906
69.16000 77098.680
69.20000 76322.219
69.24000 63206.508
69.28000 48315.527
69.32000 40057.965
69.36000 35931.219
69.40000 29167.389
69.44000 17563.443
69.48000 8089.189
69.52000 3669.014
69.56000 2296.816
69.60000 1747.596
69.64000 1450.611
69.68000 1300.230
69.72000 1145.977
69.76000 1037.871
69.80000 949.801
69.84000 888.991
69.88000 821.217
69.92000 815.217
69.96000 753.300
70.00000 728.600