File: XRD/22-09-2025 Dep 2/XY Data/BTO_Mapping_Theta2Theta_22-09-2025_001_55_-8-901_-38-997.xy
20.00000 575.394
20.04000 569.457
20.08000 577.755
20.12000 568.516
20.16000 575.152
20.20000 555.917
20.24000 569.336
20.28000 555.891
20.32000 568.232
20.36000 553.941
20.40000 548.041
20.44000 576.301
20.48000 556.323
20.52000 555.981
20.56000 565.795
20.60000 560.733
20.64000 543.320
20.68000 557.969
20.72000 563.914
20.76000 570.674
20.80000 558.575
20.84000 548.471
20.88000 572.782
20.92000 574.633
20.96000 550.189
21.00000 570.096
21.04000 547.454
21.08000 556.596
21.12000 531.691
21.16000 568.247
21.20000 544.172
21.24000 532.762
21.28000 558.011
21.32000 567.338
21.36000 588.395
21.40000 550.813
21.44000 558.377
21.48000 531.022
21.52000 561.832
21.56000 555.080
21.60000 585.523
21.64000 576.553
21.68000 599.637
21.72000 599.932
21.76000 600.626
21.80000 618.599
21.84000 643.707
21.88000 655.292
21.92000 699.642
21.96000 737.439
22.00000 797.011
22.04000 805.283
22.08000 833.924
22.12000 819.836
22.16000 807.682
22.20000 798.680
22.24000 741.852
22.28000 726.662
22.32000 688.645
22.36000 657.350
22.40000 607.818
22.44000 601.285
22.48000 605.616
22.52000 559.983
22.56000 575.932
22.60000 554.037
22.64000 549.713
22.68000 540.779
22.72000 541.419
22.76000 551.283
22.80000 539.931
22.84000 530.246
22.88000 526.498
22.92000 522.099
22.96000 527.788
23.00000 505.289
23.04000 529.596
23.08000 512.145
23.12000 530.847
23.16000 539.359
23.20000 530.964
23.24000 513.661
23.28000 516.385
23.32000 521.097
23.36000 509.941
23.40000 511.801
23.44000 509.852
23.48000 524.092
23.52000 524.300
23.56000 521.780
23.60000 498.136
23.64000 495.726
23.68000 510.192
23.72000 508.526
23.76000 495.548
23.80000 512.654
23.84000 494.310
23.88000 497.242
23.92000 503.686
23.96000 495.019
24.00000 473.563
24.04000 498.971
24.08000 499.038
24.12000 486.699
24.16000 502.393
24.20000 511.632
24.24000 480.696
24.28000 489.474
24.32000 494.381
24.36000 490.434
24.40000 509.523
24.44000 503.829
24.48000 485.843
24.52000 517.118
24.56000 505.158
24.60000 495.062
24.64000 495.447
24.68000 502.344
24.72000 476.848
24.76000 474.739
24.80000 475.870
24.84000 485.731
24.88000 482.575
24.92000 481.656
24.96000 484.014
25.00000 478.231
25.04000 462.649
25.08000 489.096
25.12000 488.013
25.16000 480.040
25.20000 472.478
25.24000 470.489
25.28000 478.212
25.32000 480.751
25.36000 481.042
25.40000 481.029
25.44000 478.660
25.48000 467.332
25.52000 483.019
25.56000 453.563
25.60000 468.050
25.64000 454.819
25.68000 461.574
25.72000 466.270
25.76000 456.778
25.80000 472.382
25.84000 470.671
25.88000 469.554
25.92000 458.080
25.96000 473.980
26.00000 447.272
26.04000 464.551
26.08000 465.648
26.12000 461.832
26.16000 462.490
26.20000 463.043
26.24000 438.625
26.28000 452.704
26.32000 464.937
26.36000 465.122
26.40000 457.041
26.44000 476.520
26.48000 446.426
26.52000 469.179
26.56000 458.202
26.60000 469.745
26.64000 465.998
26.68000 453.575
26.72000 449.575
26.76000 442.291
26.80000 437.706
26.84000 462.448
26.88000 439.210
26.92000 438.092
26.96000 445.032
27.00000 457.718
27.04000 444.399
27.08000 427.908
27.12000 450.520
27.16000 438.706
27.20000 429.668
27.24000 437.239
27.28000 444.222
27.32000 435.459
27.36000 443.199
27.40000 447.748
27.44000 439.104
27.48000 436.859
27.52000 442.621
27.56000 430.801
27.60000 453.216
27.64000 441.025
27.68000 443.357
27.72000 456.837
27.76000 425.041
27.80000 433.048
27.84000 442.033
27.88000 439.521
27.92000 418.882
27.96000 449.737
28.00000 432.182
28.04000 423.628
28.08000 433.321
28.12000 415.942
28.16000 424.766
28.20000 443.252
28.24000 434.182
28.28000 439.754
28.32000 442.909
28.36000 433.065
28.40000 441.231
28.44000 432.429
28.48000 420.820
28.52000 421.146
28.56000 438.961
28.60000 429.024
28.64000 434.041
28.68000 428.336
28.72000 417.883
28.76000 418.489
28.80000 416.959
28.84000 421.180
28.88000 426.017
28.92000 426.222
28.96000 417.080
29.00000 437.048
29.04000 425.385
29.08000 427.940
29.12000 417.638
29.16000 402.822
29.20000 408.351
29.24000 413.141
29.28000 424.807
29.32000 410.491
29.36000 427.293
29.40000 417.799
29.44000 416.579
29.48000 410.229
29.52000 420.816
29.56000 426.383
29.60000 418.331
29.64000 420.350
29.68000 410.700
29.72000 437.506
29.76000 411.850
29.80000 413.138
29.84000 408.786
29.88000 433.059
29.92000 429.509
29.96000 432.663
30.00000 437.194
30.04000 448.554
30.08000 441.287
30.12000 461.214
30.16000 443.341
30.20000 463.192
30.24000 446.449
30.28000 436.904
30.32000 428.985
30.36000 447.108
30.40000 446.051
30.44000 446.046
30.48000 415.605
30.52000 423.796
30.56000 440.832
30.60000 450.856
30.64000 461.291
30.68000 443.748
30.72000 456.134
30.76000 450.650
30.80000 455.426
30.84000 475.706
30.88000 488.361
30.92000 509.949
30.96000 526.095
31.00000 579.815
31.04000 624.272
31.08000 673.674
31.12000 816.193
31.16000 988.175
31.20000 1255.845
31.24000 1617.563
31.28000 2136.998
31.32000 2591.605
31.36000 3082.258
31.40000 3354.868
31.44000 3499.573
31.48000 3427.517
31.52000 3137.128
31.56000 2692.898
31.60000 2267.648
31.64000 1754.247
31.68000 1419.309
31.72000 1138.806
31.76000 948.688
31.80000 797.846
31.84000 699.908
31.88000 616.139
31.92000 575.642
31.96000 527.118
32.00000 477.020
32.04000 464.265
32.08000 454.863
32.12000 457.163
32.16000 437.098
32.20000 416.066
32.24000 421.418
32.28000 423.342
32.32000 398.472
32.36000 412.038
32.40000 405.155
32.44000 411.457
32.48000 399.352
32.52000 417.402
32.56000 386.372
32.60000 405.303
32.64000 412.604
32.68000 395.345
32.72000 397.123
32.76000 383.969
32.80000 414.539
32.84000 429.054
32.88000 446.459
32.92000 456.535
32.96000 459.429
33.00000 461.795
33.04000 436.542
33.08000 426.080
33.12000 395.918
33.16000 361.549
33.20000 371.657
33.24000 363.665
33.28000 347.626
33.32000 350.467
33.36000 337.179
33.40000 348.775
33.44000 347.625
33.48000 334.375
33.52000 333.948
33.56000 345.243
33.60000 335.697
33.64000 356.167
33.68000 339.414
33.72000 326.926
33.76000 337.162
33.80000 353.672
33.84000 330.223
33.88000 343.603
33.92000 338.241
33.96000 352.543
34.00000 336.194
34.04000 339.180
34.08000 336.714
34.12000 330.379
34.16000 321.043
34.20000 313.891
34.24000 332.726
34.28000 347.773
34.32000 321.919
34.36000 329.802
34.40000 335.772
34.44000 323.851
34.48000 314.404
34.52000 324.540
34.56000 340.279
34.60000 333.780
34.64000 316.983
34.68000 322.502
34.72000 339.830
34.76000 326.554
34.80000 328.888
34.84000 320.710
34.88000 346.626
34.92000 336.727
34.96000 334.844
35.00000 325.233
35.04000 321.983
35.08000 325.465
35.12000 337.416
35.16000 315.027
35.20000 326.768
35.24000 332.421
35.28000 320.430
35.32000 311.737
35.36000 313.998
35.40000 317.026
35.44000 306.946
35.48000 311.695
35.52000 304.836
35.56000 299.077
35.60000 312.070
35.64000 311.821
35.68000 303.708
35.72000 310.498
35.76000 311.281
35.80000 314.449
35.84000 316.758
35.88000 296.298
35.92000 321.651
35.96000 318.814
36.00000 313.173
36.04000 307.971
36.08000 316.444
36.12000 310.525
36.16000 315.728
36.20000 303.853
36.24000 303.346
36.28000 307.322
36.32000 303.056
36.36000 296.079
36.40000 295.063
36.44000 282.594
36.48000 292.727
36.52000 313.811
36.56000 313.992
36.60000 306.146
36.64000 297.871
36.68000 311.242
36.72000 315.683
36.76000 311.918
36.80000 301.311
36.84000 305.283
36.88000 302.262
36.92000 304.463
36.96000 297.799
37.00000 312.400
37.04000 315.378
37.08000 302.104
37.12000 300.997
37.16000 300.662
37.20000 294.726
37.24000 293.672
37.28000 304.343
37.32000 317.484
37.36000 289.989
37.40000 304.130
37.44000 287.029
37.48000 304.052
37.52000 296.552
37.56000 310.999
37.60000 301.252
37.64000 298.295
37.68000 289.089
37.72000 299.938
37.76000 288.305
37.80000 298.481
37.84000 289.418
37.88000 298.317
37.92000 294.499
37.96000 299.253
38.00000 305.316
38.04000 288.336
38.08000 312.627
38.12000 306.286
38.16000 290.432
38.20000 315.147
38.24000 316.169
38.28000 329.190
38.32000 331.521
38.36000 347.485
38.40000 361.150
38.44000 391.639
38.48000 414.570
38.52000 468.929
38.56000 548.138
38.60000 628.616
38.64000 748.915
38.68000 835.548
38.72000 925.558
38.76000 908.048
38.80000 917.232
38.84000 822.862
38.88000 750.068
38.92000 624.699
38.96000 553.959
39.00000 465.632
39.04000 422.864
39.08000 373.082
39.12000 363.942
39.16000 331.987
39.20000 298.835
39.24000 307.682
39.28000 307.713
39.32000 285.415
39.36000 276.467
39.40000 290.311
39.44000 287.808
39.48000 288.519
39.52000 284.519
39.56000 285.821
39.60000 269.479
39.64000 281.796
39.68000 269.611
39.72000 280.789
39.76000 275.835
39.80000 262.080
39.84000 261.516
39.88000 268.257
39.92000 260.638
39.96000 278.776
40.00000 264.998
40.04000 263.529
40.08000 279.189
40.12000 283.735
40.16000 270.590
40.20000 258.534
40.24000 260.611
40.28000 259.030
40.32000 262.358
40.36000 267.916
40.40000 268.398
40.44000 275.950
40.48000 264.924
40.52000 258.997
40.56000 263.812
40.60000 267.731
40.64000 262.752
40.68000 242.393
40.72000 246.596
40.76000 259.157
40.80000 249.597
40.84000 248.748
40.88000 258.839
40.92000 248.437
40.96000 253.454
41.00000 246.299
41.04000 258.361
41.08000 252.262
41.12000 251.934
41.16000 251.789
41.20000 247.480
41.24000 238.468
41.28000 230.288
41.32000 244.588
41.36000 236.632
41.40000 253.668
41.44000 257.924
41.48000 248.928
41.52000 241.946
41.56000 231.919
41.60000 242.500
41.64000 260.016
41.68000 252.788
41.72000 230.405
41.76000 255.693
41.80000 231.474
41.84000 246.861
41.88000 244.491
41.92000 257.249
41.96000 240.145
42.00000 246.341
42.04000 239.743
42.08000 242.508
42.12000 241.051
42.16000 250.836
42.20000 234.007
42.24000 239.479
42.28000 229.197
42.32000 236.703
42.36000 244.629
42.40000 237.342
42.44000 232.011
42.48000 225.259
42.52000 234.366
42.56000 236.276
42.60000 241.538
42.64000 234.402
42.68000 234.914
42.72000 246.026
42.76000 237.707
42.80000 226.091
42.84000 232.708
42.88000 219.740
42.92000 233.436
42.96000 229.354
43.00000 241.719
43.04000 236.394
43.08000 252.747
43.12000 238.752
43.16000 246.731
43.20000 230.800
43.24000 232.334
43.28000 225.587
43.32000 219.833
43.36000 227.546
43.40000 245.810
43.44000 235.784
43.48000 234.687
43.52000 221.184
43.56000 214.304
43.60000 222.645
43.64000 239.509
43.68000 233.759
43.72000 232.557
43.76000 230.339
43.80000 217.933
43.84000 214.061
43.88000 235.823
43.92000 231.574
43.96000 230.561
44.00000 239.510
44.04000 225.844
44.08000 235.371
44.12000 206.560
44.16000 229.338
44.20000 230.271
44.24000 237.541
44.28000 231.879
44.32000 213.977
44.36000 233.060
44.40000 221.089
44.44000 232.782
44.48000 233.857
44.52000 232.158
44.56000 251.688
44.60000 243.409
44.64000 249.038
44.68000 264.293
44.72000 272.501
44.76000 274.920
44.80000 283.367
44.84000 315.498
44.88000 354.623
44.92000 357.878
44.96000 369.607
45.00000 418.956
45.04000 430.539
45.08000 442.961
45.12000 440.003
45.16000 453.774
45.20000 434.758
45.24000 422.392
45.28000 413.031
45.32000 378.583
45.36000 338.985
45.40000 339.401
45.44000 326.281
45.48000 297.737
45.52000 305.974
45.56000 296.670
45.60000 274.491
45.64000 267.997
45.68000 275.866
45.72000 264.147
45.76000 249.222
45.80000 246.845
45.84000 244.502
45.88000 240.698
45.92000 232.997
45.96000 226.061
46.00000 225.930
46.04000 228.913
46.08000 208.632
46.12000 215.833
46.16000 218.394
46.20000 210.349
46.24000 218.425
46.28000 208.624
46.32000 207.742
46.36000 218.959
46.40000 213.231
46.44000 210.501
46.48000 203.647
46.52000 204.559
46.56000 203.456
46.60000 200.951
46.64000 193.859
46.68000 200.916
46.72000 190.428
46.76000 204.988
46.80000 196.126
46.84000 196.424
46.88000 197.097
46.92000 196.857
46.96000 188.641
47.00000 193.340
47.04000 188.964
47.08000 185.048
47.12000 190.938
47.16000 188.624
47.20000 202.227
47.24000 189.715
47.28000 195.528
47.32000 186.055
47.36000 187.627
47.40000 197.108
47.44000 191.044
47.48000 186.967
47.52000 191.168
47.56000 191.354
47.60000 193.293
47.64000 190.479
47.68000 176.243
47.72000 193.493
47.76000 204.748
47.80000 198.608
47.84000 184.302
47.88000 186.950
47.92000 187.877
47.96000 189.513
48.00000 190.272
48.04000 186.544
48.08000 193.007
48.12000 192.919
48.16000 193.541
48.20000 187.831
48.24000 184.399
48.28000 192.118
48.32000 196.866
48.36000 183.846
48.40000 187.911
48.44000 186.332
48.48000 195.207
48.52000 177.526
48.56000 181.043
48.60000 183.849
48.64000 183.730
48.68000 181.050
48.72000 186.479
48.76000 189.231
48.80000 177.870
48.84000 181.754
48.88000 185.752
48.92000 184.573
48.96000 186.557
49.00000 171.572
49.04000 177.690
49.08000 179.651
49.12000 172.980
49.16000 182.594
49.20000 177.419
49.24000 182.457
49.28000 186.376
49.32000 183.720
49.36000 186.978
49.40000 179.285
49.44000 191.815
49.48000 175.161
49.52000 175.956
49.56000 184.072
49.60000 181.257
49.64000 171.365
49.68000 180.489
49.72000 172.640
49.76000 175.899
49.80000 186.846
49.84000 185.105
49.88000 179.780
49.92000 167.837
49.96000 174.027
50.00000 184.524
50.04000 177.865
50.08000 181.080
50.12000 180.430
50.16000 176.915
50.20000 184.347
50.24000 192.581
50.28000 179.003
50.32000 177.039
50.36000 183.550
50.40000 198.389
50.44000 203.102
50.48000 216.378
50.52000 219.155
50.56000 228.738
50.60000 234.204
50.64000 256.926
50.68000 266.973
50.72000 272.206
50.76000 263.545
50.80000 289.045
50.84000 274.759
50.88000 271.072
50.92000 259.291
50.96000 252.786
51.00000 265.126
51.04000 206.683
51.08000 217.994
51.12000 200.996
51.16000 205.470
51.20000 191.580
51.24000 198.247
51.28000 183.526
51.32000 185.883
51.36000 172.352
51.40000 176.815
51.44000 182.131
51.48000 174.926
51.52000 178.312
51.56000 169.004
51.60000 176.499
51.64000 169.279
51.68000 172.677
51.72000 167.908
51.76000 171.402
51.80000 167.774
51.84000 157.811
51.88000 158.861
51.92000 169.398
51.96000 166.599
52.00000 162.788
52.04000 176.008
52.08000 173.274
52.12000 169.012
52.16000 161.145
52.20000 168.036
52.24000 167.305
52.28000 162.272
52.32000 165.771
52.36000 166.577
52.40000 163.140
52.44000 166.475
52.48000 155.132
52.52000 165.626
52.56000 163.018
52.60000 167.513
52.64000 161.052
52.68000 168.693
52.72000 173.753
52.76000 157.763
52.80000 147.883
52.84000 152.523
52.88000 157.780
52.92000 163.579
52.96000 160.928
53.00000 169.022
53.04000 173.352
53.08000 159.987
53.12000 164.815
53.16000 161.305
53.20000 161.781
53.24000 172.186
53.28000 159.076
53.32000 157.702
53.36000 164.432
53.40000 163.200
53.44000 152.858
53.48000 152.550
53.52000 158.108
53.56000 164.626
53.60000 162.820
53.64000 169.926
53.68000 159.103
53.72000 165.564
53.76000 150.709
53.80000 155.903
53.84000 153.146
53.88000 156.008
53.92000 172.593
53.96000 156.586
54.00000 164.096
54.04000 166.233
54.08000 157.868
54.12000 165.016
54.16000 144.291
54.20000 159.102
54.24000 155.541
54.28000 154.162
54.32000 153.003
54.36000 151.133
54.40000 154.949
54.44000 158.213
54.48000 176.531
54.52000 158.416
54.56000 157.400
54.60000 167.797
54.64000 155.854
54.68000 156.866
54.72000 160.793
54.76000 153.678
54.80000 145.129
54.84000 151.784
54.88000 156.632
54.92000 159.922
54.96000 159.723
55.00000 160.633
55.04000 163.407
55.08000 170.542
55.12000 155.667
55.16000 154.944
55.20000 159.213
55.24000 170.917
55.28000 155.834
55.32000 169.941
55.36000 172.919
55.40000 186.286
55.44000 184.258
55.48000 183.406
55.52000 207.766
55.56000 212.012
55.60000 208.922
55.64000 237.878
55.68000 254.947
55.72000 285.976
55.76000 333.643
55.80000 373.102
55.84000 430.901
55.88000 457.047
55.92000 522.259
55.96000 561.849
56.00000 556.442
56.04000 563.507
56.08000 532.934
56.12000 527.260
56.16000 475.140
56.20000 448.245
56.24000 397.211
56.28000 351.911
56.32000 323.784
56.36000 289.025
56.40000 253.683
56.44000 242.846
56.48000 219.905
56.52000 218.862
56.56000 202.592
56.60000 199.522
56.64000 183.763
56.68000 172.340
56.72000 162.361
56.76000 172.408
56.80000 177.285
56.84000 157.920
56.88000 159.054
56.92000 154.110
56.96000 155.570
57.00000 158.645
57.04000 150.454
57.08000 152.157
57.12000 153.509
57.16000 136.708
57.20000 154.874
57.24000 144.091
57.28000 149.925
57.32000 144.047
57.36000 132.989
57.40000 150.376
57.44000 148.160
57.48000 147.829
57.52000 159.316
57.56000 153.685
57.60000 136.883
57.64000 149.034
57.68000 154.381
57.72000 158.957
57.76000 145.736
57.80000 134.556
57.84000 140.249
57.88000 138.187
57.92000 150.906
57.96000 146.574
58.00000 156.189
58.04000 145.698
58.08000 142.701
58.12000 137.703
58.16000 139.637
58.20000 149.968
58.24000 141.594
58.28000 138.037
58.32000 139.865
58.36000 135.566
58.40000 132.292
58.44000 141.132
58.48000 135.581
58.52000 135.695
58.56000 132.588
58.60000 134.376
58.64000 129.213
58.68000 132.815
58.72000 144.862
58.76000 130.094
58.80000 140.347
58.84000 143.622
58.88000 131.538
58.92000 129.755
58.96000 137.267
59.00000 143.095
59.04000 137.587
59.08000 143.330
59.12000 133.270
59.16000 135.781
59.20000 133.763
59.24000 131.088
59.28000 150.851
59.32000 139.912
59.36000 129.775
59.40000 140.506
59.44000 128.502
59.48000 131.509
59.52000 136.426
59.56000 141.232
59.60000 128.093
59.64000 131.069
59.68000 130.844
59.72000 131.930
59.76000 129.411
59.80000 144.597
59.84000 144.539
59.88000 136.499
59.92000 132.674
59.96000 133.399
60.00000 145.712
60.04000 141.743
60.08000 135.643
60.12000 124.426
60.16000 131.968
60.20000 143.188
60.24000 133.669
60.28000 133.352
60.32000 134.068
60.36000 126.274
60.40000 138.113
60.44000 123.619
60.48000 137.836
60.52000 139.321
60.56000 133.282
60.60000 137.272
60.64000 123.113
60.68000 135.571
60.72000 131.274
60.76000 140.506
60.80000 130.760
60.84000 134.652
60.88000 139.517
60.92000 137.671
60.96000 144.195
61.00000 136.854
61.04000 135.268
61.08000 142.983
61.12000 148.145
61.16000 136.326
61.20000 137.926
61.24000 139.577
61.28000 142.531
61.32000 136.968
61.36000 141.468
61.40000 140.302
61.44000 145.140
61.48000 149.985
61.52000 168.778
61.56000 203.716
61.60000 251.975
61.64000 325.615
61.68000 339.031
61.72000 351.156
61.76000 340.310
61.80000 298.497
61.84000 225.464
61.88000 192.142
61.92000 165.630
61.96000 151.922
62.00000 146.491
62.04000 145.710
62.08000 147.151
62.12000 142.974
62.16000 150.087
62.20000 150.401
62.24000 146.354
62.28000 151.902
62.32000 146.103
62.36000 146.926
62.40000 139.117
62.44000 136.604
62.48000 144.378
62.52000 145.072
62.56000 160.717
62.60000 157.779
62.64000 145.474
62.68000 137.915
62.72000 141.948
62.76000 145.753
62.80000 141.792
62.84000 145.181
62.88000 145.051
62.92000 139.585
62.96000 152.048
63.00000 141.034
63.04000 143.292
63.08000 142.192
63.12000 146.812
63.16000 146.486
63.20000 143.472
63.24000 160.919
63.28000 156.566
63.32000 151.334
63.36000 143.258
63.40000 149.928
63.44000 151.007
63.48000 149.943
63.52000 149.877
63.56000 145.626
63.60000 148.905
63.64000 152.264
63.68000 157.382
63.72000 156.412
63.76000 148.413
63.80000 163.181
63.84000 165.511
63.88000 160.674
63.92000 160.182
63.96000 160.183
64.00000 158.551
64.04000 158.098
64.08000 158.888
64.12000 160.970
64.16000 160.328
64.20000 156.465
64.24000 159.888
64.28000 180.511
64.32000 163.581
64.36000 176.666
64.40000 174.508
64.44000 177.254
64.48000 173.291
64.52000 169.012
64.56000 180.517
64.60000 185.413
64.64000 174.759
64.68000 173.714
64.72000 168.098
64.76000 174.567
64.80000 172.557
64.84000 196.065
64.88000 182.361
64.92000 188.040
64.96000 181.669
65.00000 200.518
65.04000 193.659
65.08000 203.430
65.12000 204.923
65.16000 222.055
65.20000 222.963
65.24000 227.025
65.28000 245.757
65.32000 271.197
65.36000 280.733
65.40000 286.065
65.44000 338.699
65.48000 361.647
65.52000 379.125
65.56000 398.146
65.60000 449.207
65.64000 483.963
65.68000 555.484
65.72000 708.294
65.76000 958.623
65.80000 1242.699
65.84000 1412.615
65.88000 1508.218
65.92000 1483.913
65.96000 1373.463
66.00000 1075.406
66.04000 740.726
66.08000 524.150
66.12000 432.946
66.16000 397.663
66.20000 378.859
66.24000 370.224
66.28000 381.573
66.32000 452.041
66.36000 508.737
66.40000 546.209
66.44000 546.679
66.48000 547.695
66.52000 509.404
66.56000 488.109
66.60000 392.411
66.64000 350.910
66.68000 344.445
66.72000 353.331
66.76000 351.029
66.80000 375.456
66.84000 352.072
66.88000 364.657
66.92000 368.587
66.96000 377.636
67.00000 367.502
67.04000 377.104
67.08000 392.699
67.12000 395.716
67.16000 406.855
67.20000 404.405
67.24000 432.488
67.28000 426.767
67.32000 429.956
67.36000 455.323
67.40000 437.618
67.44000 453.636
67.48000 458.077
67.52000 477.093
67.56000 490.279
67.60000 484.880
67.64000 501.593
67.68000 519.678
67.72000 531.242
67.76000 533.879
67.80000 549.237
67.84000 559.329
67.88000 559.976
67.92000 559.453
67.96000 575.823
68.00000 598.138
68.04000 650.074
68.08000 637.155
68.12000 627.180
68.16000 659.280
68.20000 683.212
68.24000 683.904
68.28000 724.814
68.32000 766.178
68.36000 762.192
68.40000 772.882
68.44000 828.064
68.48000 858.520
68.52000 922.497
68.56000 1009.862
68.60000 1101.459
68.64000 1294.156
68.68000 1540.605
68.72000 1836.427
68.76000 2172.355
68.80000 2570.413
68.84000 3115.914
68.88000 4105.071
68.92000 6373.520
68.96000 12842.195
69.00000 30013.801
69.04000 55612.512
69.08000 76071.195
69.12000 83189.703
69.16000 86569.195
69.20000 88665.195
69.24000 81556.859
69.28000 65414.641
69.32000 51458.262
69.36000 44266.445
69.40000 38649.539
69.44000 27852.367
69.48000 15339.207
69.52000 7054.875
69.56000 3554.263
69.60000 2302.113
69.64000 1815.379
69.68000 1514.102
69.72000 1311.111
69.76000 1208.366
69.80000 1102.191
69.84000 1015.875
69.88000 964.453
69.92000 893.389
69.96000 835.639
70.00000 825.378