File: XRD/22-09-2025 Dep 2/XY Data/BTO_Mapping_Theta2Theta_22-09-2025_001_58_4-450_-19-499.xy
20.00000 576.585
20.04000 572.512
20.08000 572.225
20.12000 561.412
20.16000 558.154
20.20000 562.465
20.24000 578.141
20.28000 546.680
20.32000 577.660
20.36000 569.974
20.40000 575.392
20.44000 570.291
20.48000 546.512
20.52000 555.201
20.56000 565.261
20.60000 542.660
20.64000 564.823
20.68000 561.449
20.72000 544.874
20.76000 567.822
20.80000 546.366
20.84000 594.787
20.88000 564.635
20.92000 585.210
20.96000 535.769
21.00000 542.275
21.04000 532.308
21.08000 568.726
21.12000 568.314
21.16000 551.512
21.20000 571.389
21.24000 557.287
21.28000 546.666
21.32000 549.848
21.36000 556.876
21.40000 558.910
21.44000 546.559
21.48000 556.425
21.52000 556.034
21.56000 577.758
21.60000 574.582
21.64000 556.689
21.68000 582.635
21.72000 602.974
21.76000 578.124
21.80000 623.887
21.84000 642.312
21.88000 641.559
21.92000 680.903
21.96000 732.777
22.00000 752.467
22.04000 777.050
22.08000 770.474
22.12000 830.856
22.16000 772.984
22.20000 760.596
22.24000 712.687
22.28000 714.957
22.32000 669.638
22.36000 631.772
22.40000 635.098
22.44000 609.255
22.48000 585.342
22.52000 563.855
22.56000 579.258
22.60000 554.755
22.64000 560.274
22.68000 535.633
22.72000 540.900
22.76000 524.049
22.80000 531.560
22.84000 520.095
22.88000 513.568
22.92000 543.949
22.96000 513.803
23.00000 512.249
23.04000 519.743
23.08000 532.948
23.12000 530.905
23.16000 506.636
23.20000 527.798
23.24000 523.262
23.28000 505.001
23.32000 514.739
23.36000 520.806
23.40000 519.605
23.44000 509.127
23.48000 505.686
23.52000 495.423
23.56000 510.238
23.60000 519.000
23.64000 503.949
23.68000 506.237
23.72000 516.087
23.76000 498.652
23.80000 496.656
23.84000 506.166
23.88000 505.298
23.92000 507.414
23.96000 514.435
24.00000 514.109
24.04000 517.962
24.08000 495.202
24.12000 514.937
24.16000 498.633
24.20000 483.075
24.24000 490.765
24.28000 507.149
24.32000 495.877
24.36000 490.893
24.40000 490.695
24.44000 505.773
24.48000 490.363
24.52000 466.465
24.56000 498.691
24.60000 479.762
24.64000 468.916
24.68000 499.380
24.72000 488.971
24.76000 496.117
24.80000 505.301
24.84000 484.961
24.88000 497.329
24.92000 503.794
24.96000 491.792
25.00000 476.246
25.04000 483.011
25.08000 473.425
25.12000 470.038
25.16000 475.690
25.20000 504.334
25.24000 482.611
25.28000 480.926
25.32000 472.318
25.36000 499.878
25.40000 475.053
25.44000 459.970
25.48000 460.465
25.52000 477.244
25.56000 491.428
25.60000 471.468
25.64000 464.895
25.68000 478.438
25.72000 476.637
25.76000 469.226
25.80000 473.085
25.84000 445.960
25.88000 456.766
25.92000 446.834
25.96000 474.734
26.00000 473.868
26.04000 497.705
26.08000 456.857
26.12000 456.191
26.16000 474.744
26.20000 453.132
26.24000 444.634
26.28000 438.847
26.32000 452.607
26.36000 456.951
26.40000 476.233
26.44000 475.368
26.48000 463.235
26.52000 456.552
26.56000 459.088
26.60000 445.590
26.64000 441.017
26.68000 460.876
26.72000 457.629
26.76000 450.883
26.80000 448.946
26.84000 462.169
26.88000 456.822
26.92000 476.355
26.96000 447.309
27.00000 475.408
27.04000 432.344
27.08000 461.585
27.12000 436.056
27.16000 450.249
27.20000 471.372
27.24000 459.782
27.28000 437.383
27.32000 442.620
27.36000 451.639
27.40000 431.151
27.44000 443.182
27.48000 459.888
27.52000 421.127
27.56000 432.889
27.60000 407.778
27.64000 422.845
27.68000 451.450
27.72000 450.011
27.76000 437.279
27.80000 451.142
27.84000 445.167
27.88000 421.800
27.92000 440.797
27.96000 423.040
28.00000 420.760
28.04000 416.309
28.08000 432.606
28.12000 441.311
28.16000 417.082
28.20000 449.296
28.24000 426.102
28.28000 437.974
28.32000 452.857
28.36000 433.852
28.40000 428.051
28.44000 428.980
28.48000 429.608
28.52000 443.866
28.56000 437.580
28.60000 429.477
28.64000 423.809
28.68000 413.793
28.72000 435.013
28.76000 426.986
28.80000 422.187
28.84000 424.281
28.88000 416.350
28.92000 419.379
28.96000 439.677
29.00000 410.855
29.04000 431.244
29.08000 420.320
29.12000 418.806
29.16000 420.396
29.20000 413.750
29.24000 421.050
29.28000 412.758
29.32000 428.934
29.36000 423.152
29.40000 438.228
29.44000 415.811
29.48000 440.019
29.52000 397.513
29.56000 422.453
29.60000 397.194
29.64000 431.652
29.68000 420.845
29.72000 409.745
29.76000 417.283
29.80000 433.993
29.84000 412.782
29.88000 422.697
29.92000 457.780
29.96000 448.963
30.00000 437.400
30.04000 454.900
30.08000 453.539
30.12000 457.852
30.16000 436.877
30.20000 443.321
30.24000 446.818
30.28000 444.094
30.32000 420.628
30.36000 439.973
30.40000 444.755
30.44000 440.448
30.48000 445.037
30.52000 445.391
30.56000 452.920
30.60000 443.098
30.64000 456.567
30.68000 454.114
30.72000 452.836
30.76000 463.736
30.80000 491.275
30.84000 513.491
30.88000 508.865
30.92000 512.971
30.96000 583.497
31.00000 595.820
31.04000 673.212
31.08000 788.921
31.12000 916.296
31.16000 1143.961
31.20000 1494.358
31.24000 1935.742
31.28000 2337.189
31.32000 2871.353
31.36000 3227.938
31.40000 3416.402
31.44000 3315.084
31.48000 3116.616
31.52000 2750.395
31.56000 2265.961
31.60000 1823.535
31.64000 1418.013
31.68000 1117.474
31.72000 919.758
31.76000 798.841
31.80000 683.450
31.84000 643.955
31.88000 551.015
31.92000 533.284
31.96000 498.309
32.00000 486.120
32.04000 448.807
32.08000 437.841
32.12000 435.503
32.16000 421.432
32.20000 405.049
32.24000 401.808
32.28000 403.139
32.32000 414.943
32.36000 400.065
32.40000 406.687
32.44000 391.084
32.48000 403.041
32.52000 404.416
32.56000 398.445
32.60000 392.762
32.64000 391.209
32.68000 392.869
32.72000 383.348
32.76000 384.816
32.80000 395.970
32.84000 415.207
32.88000 429.576
32.92000 443.270
32.96000 419.560
33.00000 453.966
33.04000 430.323
33.08000 394.277
33.12000 369.894
33.16000 367.650
33.20000 369.260
33.24000 366.212
33.28000 355.181
33.32000 340.083
33.36000 369.364
33.40000 356.901
33.44000 355.155
33.48000 352.583
33.52000 347.928
33.56000 363.488
33.60000 333.418
33.64000 353.789
33.68000 328.295
33.72000 347.598
33.76000 351.871
33.80000 336.672
33.84000 326.996
33.88000 348.072
33.92000 337.414
33.96000 319.169
34.00000 341.919
34.04000 336.484
34.08000 338.841
34.12000 346.913
34.16000 343.660
34.20000 352.091
34.24000 337.357
34.28000 338.861
34.32000 337.820
34.36000 332.272
34.40000 330.836
34.44000 328.828
34.48000 334.522
34.52000 334.981
34.56000 341.270
34.60000 329.564
34.64000 323.753
34.68000 322.403
34.72000 327.951
34.76000 334.713
34.80000 319.861
34.84000 318.639
34.88000 333.885
34.92000 352.664
34.96000 320.983
35.00000 313.583
35.04000 322.603
35.08000 308.821
35.12000 319.848
35.16000 314.894
35.20000 319.478
35.24000 315.377
35.28000 331.311
35.32000 329.683
35.36000 338.949
35.40000 313.063
35.44000 327.753
35.48000 326.263
35.52000 315.251
35.56000 332.647
35.60000 313.878
35.64000 317.571
35.68000 295.068
35.72000 310.070
35.76000 303.100
35.80000 298.188
35.84000 297.131
35.88000 317.588
35.92000 303.685
35.96000 310.386
36.00000 307.352
36.04000 304.206
36.08000 305.229
36.12000 302.452
36.16000 309.947
36.20000 305.850
36.24000 312.749
36.28000 302.994
36.32000 299.090
36.36000 318.679
36.40000 308.451
36.44000 296.440
36.48000 301.670
36.52000 302.621
36.56000 302.344
36.60000 300.162
36.64000 312.997
36.68000 309.512
36.72000 298.774
36.76000 305.803
36.80000 286.978
36.84000 286.942
36.88000 296.631
36.92000 303.661
36.96000 300.949
37.00000 289.629
37.04000 294.639
37.08000 315.913
37.12000 288.465
37.16000 299.493
37.20000 299.582
37.24000 296.263
37.28000 306.189
37.32000 304.290
37.36000 282.173
37.40000 287.450
37.44000 306.252
37.48000 297.657
37.52000 285.288
37.56000 293.316
37.60000 296.271
37.64000 284.041
37.68000 296.142
37.72000 297.923
37.76000 291.258
37.80000 291.808
37.84000 285.741
37.88000 293.551
37.92000 290.973
37.96000 302.689
38.00000 297.735
38.04000 296.029
38.08000 301.223
38.12000 304.984
38.16000 304.979
38.20000 310.597
38.24000 321.449
38.28000 317.273
38.32000 336.131
38.36000 352.143
38.40000 393.159
38.44000 406.266
38.48000 460.493
38.52000 535.589
38.56000 609.723
38.60000 727.274
38.64000 830.156
38.68000 949.786
38.72000 993.578
38.76000 1014.900
38.80000 979.453
38.84000 870.730
38.88000 754.685
38.92000 657.976
38.96000 527.503
39.00000 475.379
39.04000 404.105
39.08000 374.309
39.12000 336.651
39.16000 327.980
39.20000 326.170
39.24000 307.405
39.28000 311.381
39.32000 288.266
39.36000 286.056
39.40000 302.123
39.44000 283.546
39.48000 283.866
39.52000 283.080
39.56000 270.125
39.60000 289.293
39.64000 273.453
39.68000 266.819
39.72000 270.423
39.76000 261.287
39.80000 265.265
39.84000 258.502
39.88000 266.213
39.92000 263.658
39.96000 284.193
40.00000 268.921
40.04000 259.763
40.08000 278.225
40.12000 266.338
40.16000 282.541
40.20000 257.228
40.24000 279.941
40.28000 274.021
40.32000 270.004
40.36000 259.720
40.40000 268.590
40.44000 274.401
40.48000 263.049
40.52000 256.913
40.56000 257.473
40.60000 261.670
40.64000 242.192
40.68000 254.149
40.72000 255.285
40.76000 252.955
40.80000 258.920
40.84000 265.708
40.88000 254.901
40.92000 254.259
40.96000 249.994
41.00000 257.213
41.04000 252.504
41.08000 247.955
41.12000 256.103
41.16000 250.780
41.20000 254.713
41.24000 253.026
41.28000 239.938
41.32000 241.656
41.36000 252.412
41.40000 259.492
41.44000 242.988
41.48000 235.190
41.52000 258.705
41.56000 250.215
41.60000 247.368
41.64000 245.613
41.68000 247.445
41.72000 243.181
41.76000 253.360
41.80000 247.874
41.84000 247.355
41.88000 254.736
41.92000 244.697
41.96000 253.579
42.00000 245.774
42.04000 242.745
42.08000 238.486
42.12000 237.660
42.16000 254.977
42.20000 248.048
42.24000 241.751
42.28000 240.910
42.32000 243.709
42.36000 253.783
42.40000 258.647
42.44000 243.505
42.48000 237.016
42.52000 226.255
42.56000 241.014
42.60000 241.968
42.64000 236.185
42.68000 230.919
42.72000 241.226
42.76000 228.151
42.80000 239.402
42.84000 241.144
42.88000 232.881
42.92000 231.563
42.96000 238.488
43.00000 237.238
43.04000 232.259
43.08000 226.104
43.12000 244.918
43.16000 230.078
43.20000 238.787
43.24000 220.125
43.28000 237.209
43.32000 234.937
43.36000 229.966
43.40000 244.747
43.44000 230.897
43.48000 226.107
43.52000 227.251
43.56000 231.446
43.60000 226.676
43.64000 243.412
43.68000 226.688
43.72000 230.062
43.76000 222.340
43.80000 228.772
43.84000 210.419
43.88000 211.465
43.92000 211.705
43.96000 229.827
44.00000 239.164
44.04000 218.844
44.08000 223.139
44.12000 236.383
44.16000 222.061
44.20000 232.518
44.24000 239.766
44.28000 226.784
44.32000 223.291
44.36000 222.839
44.40000 225.379
44.44000 229.893
44.48000 248.194
44.52000 232.856
44.56000 232.710
44.60000 252.467
44.64000 243.161
44.68000 250.688
44.72000 266.371
44.76000 276.214
44.80000 290.816
44.84000 308.982
44.88000 319.640
44.92000 336.083
44.96000 354.893
45.00000 411.697
45.04000 408.410
45.08000 423.279
45.12000 420.939
45.16000 430.045
45.20000 424.540
45.24000 405.690
45.28000 389.915
45.32000 373.453
45.36000 348.220
45.40000 325.246
45.44000 327.391
45.48000 304.428
45.52000 296.119
45.56000 301.515
45.60000 270.646
45.64000 269.318
45.68000 250.457
45.72000 251.055
45.76000 251.359
45.80000 226.842
45.84000 246.417
45.88000 241.467
45.92000 238.228
45.96000 230.596
46.00000 221.798
46.04000 223.168
46.08000 221.916
46.12000 218.231
46.16000 212.232
46.20000 209.527
46.24000 230.125
46.28000 211.303
46.32000 210.111
46.36000 210.160
46.40000 213.967
46.44000 197.880
46.48000 206.244
46.52000 207.818
46.56000 200.218
46.60000 195.997
46.64000 193.608
46.68000 204.792
46.72000 199.355
46.76000 194.175
46.80000 208.761
46.84000 213.750
46.88000 201.212
46.92000 198.498
46.96000 201.063
47.00000 201.898
47.04000 204.912
47.08000 187.434
47.12000 197.410
47.16000 193.459
47.20000 197.835
47.24000 189.767
47.28000 183.611
47.32000 186.182
47.36000 191.462
47.40000 188.333
47.44000 190.884
47.48000 200.371
47.52000 198.514
47.56000 192.009
47.60000 192.367
47.64000 195.593
47.68000 186.163
47.72000 181.630
47.76000 176.184
47.80000 194.734
47.84000 196.251
47.88000 183.778
47.92000 189.741
47.96000 188.196
48.00000 180.629
48.04000 186.184
48.08000 187.583
48.12000 178.277
48.16000 183.091
48.20000 181.007
48.24000 189.436
48.28000 185.700
48.32000 183.680
48.36000 188.263
48.40000 175.034
48.44000 178.588
48.48000 175.559
48.52000 173.907
48.56000 185.848
48.60000 180.178
48.64000 183.149
48.68000 179.873
48.72000 168.347
48.76000 177.510
48.80000 190.809
48.84000 182.192
48.88000 186.613
48.92000 168.381
48.96000 188.058
49.00000 185.051
49.04000 190.242
49.08000 175.875
49.12000 184.624
49.16000 184.777
49.20000 173.144
49.24000 169.657
49.28000 182.012
49.32000 178.820
49.36000 185.342
49.40000 176.449
49.44000 175.223
49.48000 182.343
49.52000 189.891
49.56000 174.919
49.60000 184.143
49.64000 182.345
49.68000 172.219
49.72000 171.270
49.76000 179.572
49.80000 179.124
49.84000 175.953
49.88000 186.778
49.92000 185.236
49.96000 172.012
50.00000 181.209
50.04000 182.841
50.08000 182.296
50.12000 180.589
50.16000 179.163
50.20000 173.911
50.24000 171.713
50.28000 180.851
50.32000 187.499
50.36000 184.878
50.40000 186.368
50.44000 200.873
50.48000 200.098
50.52000 205.493
50.56000 225.435
50.60000 244.922
50.64000 247.475
50.68000 245.264
50.72000 259.078
50.76000 267.696
50.80000 268.154
50.84000 239.052
50.88000 240.703
50.92000 241.021
50.96000 222.825
51.00000 212.805
51.04000 207.137
51.08000 198.600
51.12000 200.797
51.16000 181.878
51.20000 202.098
51.24000 186.014
51.28000 181.510
51.32000 181.251
51.36000 171.325
51.40000 179.429
51.44000 187.377
51.48000 168.091
51.52000 162.743
51.56000 173.315
51.60000 162.969
51.64000 167.883
51.68000 163.577
51.72000 172.743
51.76000 174.448
51.80000 167.177
51.84000 158.689
51.88000 160.693
51.92000 183.145
51.96000 163.476
52.00000 158.911
52.04000 157.116
52.08000 166.392
52.12000 165.657
52.16000 150.821
52.20000 164.399
52.24000 168.225
52.28000 161.047
52.32000 165.782
52.36000 151.323
52.40000 163.128
52.44000 162.232
52.48000 156.968
52.52000 151.418
52.56000 151.280
52.60000 166.601
52.64000 160.048
52.68000 163.025
52.72000 160.950
52.76000 154.115
52.80000 156.017
52.84000 162.931
52.88000 154.658
52.92000 157.405
52.96000 157.301
53.00000 158.882
53.04000 155.685
53.08000 169.340
53.12000 153.350
53.16000 154.595
53.20000 157.134
53.24000 156.019
53.28000 161.039
53.32000 141.935
53.36000 162.382
53.40000 156.774
53.44000 161.249
53.48000 163.817
53.52000 169.666
53.56000 163.653
53.60000 158.379
53.64000 155.921
53.68000 151.552
53.72000 150.387
53.76000 160.698
53.80000 164.979
53.84000 148.817
53.88000 154.315
53.92000 153.470
53.96000 150.405
54.00000 155.294
54.04000 157.833
54.08000 157.955
54.12000 159.497
54.16000 154.332
54.20000 154.950
54.24000 156.303
54.28000 152.185
54.32000 155.889
54.36000 157.875
54.40000 146.393
54.44000 151.235
54.48000 149.815
54.52000 159.425
54.56000 152.761
54.60000 160.722
54.64000 157.831
54.68000 168.105
54.72000 159.928
54.76000 158.676
54.80000 153.788
54.84000 158.188
54.88000 158.722
54.92000 157.044
54.96000 156.651
55.00000 158.698
55.04000 159.511
55.08000 157.791
55.12000 160.738
55.16000 173.256
55.20000 173.870
55.24000 171.761
55.28000 175.353
55.32000 176.125
55.36000 186.821
55.40000 185.011
55.44000 179.318
55.48000 187.698
55.52000 205.599
55.56000 210.705
55.60000 215.088
55.64000 238.464
55.68000 261.180
55.72000 299.758
55.76000 336.297
55.80000 370.973
55.84000 435.090
55.88000 491.691
55.92000 549.855
55.96000 563.801
56.00000 573.428
56.04000 546.004
56.08000 523.331
56.12000 472.322
56.16000 435.102
56.20000 392.332
56.24000 362.397
56.28000 324.227
56.32000 278.477
56.36000 255.810
56.40000 236.182
56.44000 231.286
56.48000 208.655
56.52000 201.286
56.56000 207.549
56.60000 177.126
56.64000 172.897
56.68000 184.106
56.72000 160.987
56.76000 162.028
56.80000 167.693
56.84000 160.381
56.88000 169.115
56.92000 155.687
56.96000 151.156
57.00000 155.602
57.04000 153.573
57.08000 141.172
57.12000 148.727
57.16000 148.548
57.20000 147.249
57.24000 145.384
57.28000 148.987
57.32000 150.454
57.36000 149.000
57.40000 155.036
57.44000 145.038
57.48000 135.183
57.52000 138.400
57.56000 132.306
57.60000 143.879
57.64000 143.129
57.68000 143.393
57.72000 153.427
57.76000 150.785
57.80000 139.172
57.84000 142.359
57.88000 139.996
57.92000 144.713
57.96000 140.758
58.00000 142.660
58.04000 145.867
58.08000 145.190
58.12000 145.558
58.16000 143.009
58.20000 130.713
58.24000 136.981
58.28000 135.358
58.32000 154.335
58.36000 140.702
58.40000 139.014
58.44000 141.095
58.48000 136.710
58.52000 143.075
58.56000 139.224
58.60000 145.142
58.64000 135.990
58.68000 140.968
58.72000 143.444
58.76000 141.057
58.80000 137.431
58.84000 135.093
58.88000 133.453
58.92000 134.503
58.96000 139.449
59.00000 135.580
59.04000 137.624
59.08000 139.888
59.12000 131.997
59.16000 132.211
59.20000 133.551
59.24000 127.467
59.28000 137.565
59.32000 133.351
59.36000 127.282
59.40000 131.774
59.44000 127.187
59.48000 136.688
59.52000 139.041
59.56000 133.696
59.60000 131.200
59.64000 141.472
59.68000 140.193
59.72000 134.448
59.76000 135.643
59.80000 127.969
59.84000 134.137
59.88000 137.196
59.92000 143.769
59.96000 134.097
60.00000 146.822
60.04000 126.871
60.08000 129.741
60.12000 128.813
60.16000 136.964
60.20000 139.352
60.24000 131.876
60.28000 124.880
60.32000 139.048
60.36000 130.693
60.40000 124.994
60.44000 130.926
60.48000 131.439
60.52000 134.381
60.56000 133.158
60.60000 129.593
60.64000 135.373
60.68000 139.262
60.72000 137.478
60.76000 142.538
60.80000 136.572
60.84000 129.555
60.88000 141.374
60.92000 130.459
60.96000 132.340
61.00000 131.476
61.04000 130.925
61.08000 136.871
61.12000 137.692
61.16000 144.245
61.20000 145.392
61.24000 136.888
61.28000 140.515
61.32000 150.712
61.36000 148.687
61.40000 144.288
61.44000 145.355
61.48000 147.807
61.52000 168.169
61.56000 197.447
61.60000 267.326
61.64000 290.919
61.68000 299.535
61.72000 316.174
61.76000 321.936
61.80000 252.215
61.84000 204.578
61.88000 169.708
61.92000 151.806
61.96000 146.002
62.00000 147.839
62.04000 146.818
62.08000 141.456
62.12000 150.231
62.16000 147.445
62.20000 140.443
62.24000 152.740
62.28000 140.095
62.32000 138.026
62.36000 138.968
62.40000 141.891
62.44000 145.256
62.48000 142.262
62.52000 155.564
62.56000 144.336
62.60000 149.520
62.64000 145.841
62.68000 150.677
62.72000 141.607
62.76000 142.788
62.80000 144.591
62.84000 153.395
62.88000 146.551
62.92000 142.350
62.96000 139.390
63.00000 145.522
63.04000 144.005
63.08000 156.449
63.12000 147.687
63.16000 155.137
63.20000 148.757
63.24000 151.534
63.28000 148.088
63.32000 149.086
63.36000 153.682
63.40000 145.243
63.44000 133.961
63.48000 149.867
63.52000 154.489
63.56000 164.602
63.60000 160.831
63.64000 162.694
63.68000 148.078
63.72000 152.947
63.76000 151.786
63.80000 155.967
63.84000 159.060
63.88000 146.976
63.92000 152.081
63.96000 160.693
64.00000 148.342
64.04000 154.449
64.08000 153.473
64.12000 174.001
64.16000 164.318
64.20000 162.951
64.24000 162.091
64.28000 167.779
64.32000 168.544
64.36000 159.239
64.40000 176.688
64.44000 175.239
64.48000 186.419
64.52000 170.713
64.56000 174.243
64.60000 173.072
64.64000 175.310
64.68000 165.524
64.72000 177.872
64.76000 179.342
64.80000 182.172
64.84000 183.136
64.88000 183.128
64.92000 204.454
64.96000 190.349
65.00000 210.144
65.04000 195.029
65.08000 207.089
65.12000 223.148
65.16000 222.448
65.20000 229.133
65.24000 241.682
65.28000 239.818
65.32000 282.588
65.36000 295.516
65.40000 309.193
65.44000 339.310
65.48000 371.034
65.52000 400.539
65.56000 418.132
65.60000 443.270
65.64000 489.083
65.68000 554.886
65.72000 685.476
65.76000 949.769
65.80000 1152.260
65.84000 1305.046
65.88000 1305.187
65.92000 1271.125
65.96000 1143.836
66.00000 825.750
66.04000 566.733
66.08000 417.645
66.12000 367.119
66.16000 337.204
66.20000 345.350
66.24000 365.756
66.28000 364.549
66.32000 420.165
66.36000 455.150
66.40000 500.879
66.44000 511.013
66.48000 524.143
66.52000 474.434
66.56000 410.769
66.60000 375.646
66.64000 343.544
66.68000 369.013
66.72000 327.001
66.76000 331.460
66.80000 357.442
66.84000 337.267
66.88000 342.792
66.92000 354.317
66.96000 360.256
67.00000 378.808
67.04000 376.346
67.08000 369.543
67.12000 397.432
67.16000 388.914
67.20000 394.172
67.24000 404.619
67.28000 400.705
67.32000 406.248
67.36000 428.509
67.40000 437.485
67.44000 422.068
67.48000 436.169
67.52000 451.695
67.56000 467.598
67.60000 464.222
67.64000 470.722
67.68000 495.958
67.72000 484.448
67.76000 500.661
67.80000 516.423
67.84000 517.601
67.88000 529.274
67.92000 522.351
67.96000 553.977
68.00000 561.393
68.04000 573.888
68.08000 578.951
68.12000 616.397
68.16000 651.602
68.20000 634.323
68.24000 661.502
68.28000 672.241
68.32000 691.735
68.36000 725.243
68.40000 742.758
68.44000 775.883
68.48000 804.361
68.52000 873.898
68.56000 959.422
68.60000 1065.328
68.64000 1224.776
68.68000 1502.178
68.72000 1764.040
68.76000 2012.811
68.80000 2355.983
68.84000 2822.645
68.88000 3711.303
68.92000 6228.724
68.96000 14118.967
69.00000 32510.201
69.04000 55310.242
69.08000 69104.945
69.12000 72740.977
69.16000 75575.836
69.20000 76379.805
69.24000 66535.008
69.28000 51010.391
69.32000 41395.547
69.36000 36807.188
69.40000 31107.848
69.44000 20418.098
69.48000 9954.197
69.52000 4462.749
69.56000 2558.592
69.60000 1815.223
69.64000 1495.953
69.68000 1322.976
69.72000 1155.413
69.76000 1044.225
69.80000 977.210
69.84000 903.073
69.88000 843.880
69.92000 841.858
69.96000 776.193
70.00000 737.708