File: XRD/22-09-2025 Dep 2/XY Data/BTO_Mapping_Theta2Theta_22-09-2025_001_24_-6-676_29-248.xy
20.00000 547.340
20.04000 568.555
20.08000 564.679
20.12000 558.231
20.16000 564.644
20.20000 561.970
20.24000 555.331
20.28000 596.991
20.32000 559.658
20.36000 562.979
20.40000 572.932
20.44000 546.973
20.48000 567.747
20.52000 564.316
20.56000 562.882
20.60000 557.485
20.64000 552.823
20.68000 552.695
20.72000 566.302
20.76000 559.743
20.80000 569.170
20.84000 545.049
20.88000 561.917
20.92000 560.968
20.96000 579.965
21.00000 562.941
21.04000 554.156
21.08000 552.376
21.12000 568.498
21.16000 576.322
21.20000 573.853
21.24000 546.453
21.28000 550.549
21.32000 549.312
21.36000 580.898
21.40000 544.730
21.44000 570.262
21.48000 566.121
21.52000 553.375
21.56000 555.061
21.60000 574.399
21.64000 584.058
21.68000 592.521
21.72000 603.805
21.76000 622.657
21.80000 649.996
21.84000 668.231
21.88000 676.083
21.92000 731.714
21.96000 807.796
22.00000 832.275
22.04000 843.322
22.08000 841.186
22.12000 829.982
22.16000 794.985
22.20000 759.477
22.24000 716.612
22.28000 686.963
22.32000 650.825
22.36000 626.024
22.40000 603.598
22.44000 595.458
22.48000 581.575
22.52000 551.240
22.56000 568.050
22.60000 575.084
22.64000 541.832
22.68000 537.524
22.72000 536.034
22.76000 532.282
22.80000 551.035
22.84000 520.907
22.88000 529.411
22.92000 525.243
22.96000 525.331
23.00000 521.578
23.04000 542.276
23.08000 533.838
23.12000 487.179
23.16000 522.854
23.20000 504.470
23.24000 512.207
23.28000 517.535
23.32000 488.716
23.36000 491.351
23.40000 502.858
23.44000 498.257
23.48000 494.801
23.52000 492.755
23.56000 502.006
23.60000 503.200
23.64000 501.253
23.68000 524.852
23.72000 523.045
23.76000 495.714
23.80000 508.243
23.84000 492.715
23.88000 486.263
23.92000 483.048
23.96000 487.931
24.00000 492.268
24.04000 505.214
24.08000 500.787
24.12000 486.910
24.16000 498.163
24.20000 507.626
24.24000 490.444
24.28000 487.631
24.32000 475.114
24.36000 494.701
24.40000 486.241
24.44000 482.666
24.48000 486.189
24.52000 490.365
24.56000 482.078
24.60000 482.328
24.64000 485.293
24.68000 488.245
24.72000 486.165
24.76000 482.015
24.80000 486.244
24.84000 483.005
24.88000 468.205
24.92000 478.450
24.96000 472.386
25.00000 462.852
25.04000 465.998
25.08000 464.579
25.12000 471.588
25.16000 483.907
25.20000 508.500
25.24000 504.716
25.28000 482.875
25.32000 478.208
25.36000 476.191
25.40000 474.693
25.44000 500.084
25.48000 483.728
25.52000 467.830
25.56000 456.919
25.60000 462.868
25.64000 470.202
25.68000 463.152
25.72000 473.896
25.76000 466.469
25.80000 466.584
25.84000 445.246
25.88000 475.425
25.92000 453.018
25.96000 435.005
26.00000 462.618
26.04000 483.958
26.08000 471.474
26.12000 468.929
26.16000 473.763
26.20000 455.449
26.24000 464.190
26.28000 464.585
26.32000 454.611
26.36000 461.018
26.40000 462.430
26.44000 462.075
26.48000 444.364
26.52000 460.107
26.56000 439.662
26.60000 456.201
26.64000 444.825
26.68000 461.699
26.72000 463.025
26.76000 463.205
26.80000 463.330
26.84000 441.869
26.88000 454.650
26.92000 447.014
26.96000 439.415
27.00000 439.319
27.04000 450.507
27.08000 450.909
27.12000 442.186
27.16000 438.603
27.20000 449.709
27.24000 448.296
27.28000 448.857
27.32000 442.780
27.36000 461.234
27.40000 443.291
27.44000 441.200
27.48000 432.199
27.52000 464.117
27.56000 448.295
27.60000 447.957
27.64000 441.144
27.68000 430.926
27.72000 446.920
27.76000 429.795
27.80000 428.300
27.84000 452.145
27.88000 426.824
27.92000 454.115
27.96000 430.031
28.00000 437.629
28.04000 437.459
28.08000 433.673
28.12000 449.409
28.16000 444.463
28.20000 441.928
28.24000 428.242
28.28000 422.498
28.32000 430.532
28.36000 425.328
28.40000 450.335
28.44000 427.769
28.48000 440.458
28.52000 433.320
28.56000 423.061
28.60000 430.364
28.64000 414.254
28.68000 410.926
28.72000 417.514
28.76000 427.750
28.80000 428.802
28.84000 427.372
28.88000 412.165
28.92000 429.423
28.96000 417.820
29.00000 410.455
29.04000 408.403
29.08000 418.539
29.12000 423.082
29.16000 413.340
29.20000 430.171
29.24000 418.217
29.28000 395.922
29.32000 410.244
29.36000 415.393
29.40000 429.402
29.44000 431.083
29.48000 431.016
29.52000 429.730
29.56000 409.167
29.60000 412.572
29.64000 414.456
29.68000 410.201
29.72000 419.283
29.76000 422.387
29.80000 424.025
29.84000 423.717
29.88000 445.514
29.92000 451.915
29.96000 439.030
30.00000 447.805
30.04000 454.158
30.08000 451.003
30.12000 448.124
30.16000 432.973
30.20000 436.766
30.24000 440.800
30.28000 418.442
30.32000 436.870
30.36000 429.468
30.40000 436.593
30.44000 441.171
30.48000 436.750
30.52000 431.313
30.56000 438.624
30.60000 439.679
30.64000 452.964
30.68000 465.012
30.72000 457.703
30.76000 467.826
30.80000 473.532
30.84000 489.139
30.88000 502.437
30.92000 523.465
30.96000 530.259
31.00000 579.554
31.04000 686.883
31.08000 780.601
31.12000 958.996
31.16000 1251.711
31.20000 1537.364
31.24000 1967.652
31.28000 2472.554
31.32000 2902.162
31.36000 3231.538
31.40000 3411.832
31.44000 3309.055
31.48000 3009.205
31.52000 2590.498
31.56000 2109.932
31.60000 1732.116
31.64000 1361.067
31.68000 1082.824
31.72000 910.602
31.76000 755.650
31.80000 671.805
31.84000 606.007
31.88000 556.692
31.92000 524.173
31.96000 485.088
32.00000 465.298
32.04000 447.498
32.08000 451.123
32.12000 445.954
32.16000 431.931
32.20000 424.887
32.24000 395.141
32.28000 422.242
32.32000 419.024
32.36000 391.362
32.40000 396.574
32.44000 400.186
32.48000 401.545
32.52000 388.043
32.56000 398.006
32.60000 395.136
32.64000 400.641
32.68000 395.925
32.72000 397.854
32.76000 402.952
32.80000 382.500
32.84000 423.626
32.88000 427.587
32.92000 418.832
32.96000 406.742
33.00000 426.309
33.04000 408.330
33.08000 388.694
33.12000 374.381
33.16000 366.388
33.20000 354.631
33.24000 357.247
33.28000 359.731
33.32000 353.524
33.36000 349.956
33.40000 364.183
33.44000 337.785
33.48000 345.613
33.52000 338.963
33.56000 346.595
33.60000 357.715
33.64000 346.896
33.68000 342.665
33.72000 342.870
33.76000 343.016
33.80000 347.728
33.84000 349.843
33.88000 329.570
33.92000 347.057
33.96000 352.757
34.00000 331.845
34.04000 339.971
34.08000 332.637
34.12000 340.383
34.16000 329.168
34.20000 331.807
34.24000 340.225
34.28000 352.950
34.32000 335.965
34.36000 338.911
34.40000 324.833
34.44000 335.487
34.48000 313.329
34.52000 338.854
34.56000 342.623
34.60000 334.491
34.64000 328.415
34.68000 320.105
34.72000 328.816
34.76000 329.001
34.80000 332.768
34.84000 333.304
34.88000 333.489
34.92000 318.970
34.96000 323.552
35.00000 325.707
35.04000 323.681
35.08000 312.519
35.12000 319.708
35.16000 338.287
35.20000 328.185
35.24000 332.086
35.28000 300.866
35.32000 322.656
35.36000 309.894
35.40000 307.091
35.44000 313.229
35.48000 314.449
35.52000 315.716
35.56000 312.745
35.60000 317.922
35.64000 314.105
35.68000 326.909
35.72000 325.493
35.76000 314.561
35.80000 306.051
35.84000 298.465
35.88000 322.386
35.92000 303.965
35.96000 304.065
36.00000 307.442
36.04000 315.830
36.08000 314.407
36.12000 304.598
36.16000 297.581
36.20000 307.890
36.24000 306.407
36.28000 289.002
36.32000 303.227
36.36000 312.428
36.40000 319.548
36.44000 299.088
36.48000 286.255
36.52000 311.520
36.56000 301.132
36.60000 291.729
36.64000 308.018
36.68000 294.383
36.72000 320.632
36.76000 306.355
36.80000 290.971
36.84000 310.012
36.88000 313.344
36.92000 298.990
36.96000 305.138
37.00000 306.104
37.04000 300.501
37.08000 302.391
37.12000 313.275
37.16000 305.081
37.20000 304.198
37.24000 303.725
37.28000 295.869
37.32000 301.873
37.36000 296.264
37.40000 305.520
37.44000 304.936
37.48000 296.927
37.52000 296.685
37.56000 295.177
37.60000 289.893
37.64000 305.942
37.68000 308.478
37.72000 294.138
37.76000 292.088
37.80000 303.554
37.84000 303.862
37.88000 306.918
37.92000 305.950
37.96000 277.528
38.00000 303.279
38.04000 296.603
38.08000 304.254
38.12000 308.984
38.16000 306.518
38.20000 322.766
38.24000 309.746
38.28000 334.964
38.32000 346.616
38.36000 355.873
38.40000 391.591
38.44000 426.974
38.48000 485.930
38.52000 555.567
38.56000 660.101
38.60000 761.375
38.64000 840.674
38.68000 895.488
38.72000 948.493
38.76000 924.023
38.80000 865.291
38.84000 753.120
38.88000 666.837
38.92000 571.422
38.96000 491.359
39.00000 405.313
39.04000 379.044
39.08000 356.549
39.12000 336.511
39.16000 322.305
39.20000 313.864
39.24000 305.068
39.28000 299.859
39.32000 283.706
39.36000 289.724
39.40000 276.354
39.44000 296.275
39.48000 282.359
39.52000 269.578
39.56000 290.645
39.60000 268.757
39.64000 274.741
39.68000 277.919
39.72000 265.387
39.76000 274.808
39.80000 266.203
39.84000 273.597
39.88000 271.952
39.92000 278.515
39.96000 264.856
40.00000 260.694
40.04000 281.574
40.08000 263.680
40.12000 246.536
40.16000 266.137
40.20000 262.341
40.24000 263.825
40.28000 269.685
40.32000 258.709
40.36000 283.662
40.40000 265.671
40.44000 265.810
40.48000 248.637
40.52000 259.911
40.56000 242.860
40.60000 249.305
40.64000 249.992
40.68000 234.213
40.72000 260.204
40.76000 262.136
40.80000 249.095
40.84000 249.210
40.88000 259.490
40.92000 258.267
40.96000 251.792
41.00000 237.195
41.04000 259.129
41.08000 257.464
41.12000 250.517
41.16000 256.028
41.20000 245.522
41.24000 263.506
41.28000 261.074
41.32000 258.901
41.36000 237.607
41.40000 249.889
41.44000 251.426
41.48000 246.507
41.52000 251.903
41.56000 241.727
41.60000 242.147
41.64000 246.806
41.68000 246.418
41.72000 261.060
41.76000 242.064
41.80000 232.794
41.84000 242.356
41.88000 244.645
41.92000 229.824
41.96000 233.790
42.00000 235.806
42.04000 234.639
42.08000 236.920
42.12000 243.078
42.16000 238.920
42.20000 227.638
42.24000 228.519
42.28000 243.365
42.32000 226.980
42.36000 241.346
42.40000 233.346
42.44000 228.132
42.48000 237.106
42.52000 230.157
42.56000 243.743
42.60000 223.301
42.64000 226.813
42.68000 218.799
42.72000 235.060
42.76000 218.967
42.80000 233.253
42.84000 236.495
42.88000 227.464
42.92000 227.612
42.96000 231.322
43.00000 239.559
43.04000 232.585
43.08000 248.289
43.12000 243.941
43.16000 232.902
43.20000 230.743
43.24000 232.524
43.28000 229.773
43.32000 236.138
43.36000 242.972
43.40000 230.501
43.44000 219.352
43.48000 249.077
43.52000 233.184
43.56000 220.763
43.60000 213.867
43.64000 247.301
43.68000 223.995
43.72000 229.956
43.76000 224.487
43.80000 212.992
43.84000 235.350
43.88000 228.764
43.92000 222.863
43.96000 226.411
44.00000 225.361
44.04000 230.611
44.08000 231.460
44.12000 238.237
44.16000 237.003
44.20000 223.976
44.24000 236.943
44.28000 230.126
44.32000 228.576
44.36000 238.357
44.40000 220.698
44.44000 233.060
44.48000 244.457
44.52000 246.133
44.56000 251.562
44.60000 250.995
44.64000 251.639
44.68000 267.509
44.72000 279.878
44.76000 290.492
44.80000 317.480
44.84000 348.718
44.88000 362.632
44.92000 363.849
44.96000 421.912
45.00000 448.092
45.04000 446.033
45.08000 453.976
45.12000 454.956
45.16000 440.620
45.20000 416.372
45.24000 380.415
45.28000 380.035
45.32000 350.764
45.36000 331.069
45.40000 323.621
45.44000 308.853
45.48000 283.966
45.52000 288.793
45.56000 297.457
45.60000 267.790
45.64000 268.185
45.68000 267.648
45.72000 250.752
45.76000 243.653
45.80000 243.021
45.84000 230.871
45.88000 241.025
45.92000 240.670
45.96000 233.196
46.00000 231.641
46.04000 228.473
46.08000 216.025
46.12000 225.784
46.16000 213.909
46.20000 202.373
46.24000 212.538
46.28000 206.091
46.32000 215.629
46.36000 209.650
46.40000 206.147
46.44000 206.285
46.48000 198.982
46.52000 202.538
46.56000 210.560
46.60000 198.750
46.64000 203.441
46.68000 205.276
46.72000 200.974
46.76000 213.125
46.80000 199.144
46.84000 201.837
46.88000 203.765
46.92000 199.057
46.96000 186.136
47.00000 198.123
47.04000 196.930
47.08000 202.105
47.12000 186.517
47.16000 186.679
47.20000 193.716
47.24000 199.435
47.28000 182.763
47.32000 194.479
47.36000 187.838
47.40000 197.234
47.44000 192.946
47.48000 194.857
47.52000 189.974
47.56000 184.848
47.60000 186.360
47.64000 194.452
47.68000 201.479
47.72000 181.376
47.76000 186.885
47.80000 198.871
47.84000 189.523
47.88000 182.873
47.92000 184.508
47.96000 185.530
48.00000 185.650
48.04000 188.896
48.08000 184.920
48.12000 183.714
48.16000 185.984
48.20000 202.428
48.24000 190.029
48.28000 180.668
48.32000 184.582
48.36000 189.290
48.40000 199.943
48.44000 196.394
48.48000 183.697
48.52000 181.936
48.56000 174.519
48.60000 168.485
48.64000 180.565
48.68000 182.352
48.72000 197.873
48.76000 190.003
48.80000 185.055
48.84000 187.590
48.88000 176.670
48.92000 183.652
48.96000 186.623
49.00000 182.121
49.04000 185.031
49.08000 174.894
49.12000 174.833
49.16000 189.804
49.20000 183.531
49.24000 174.574
49.28000 175.093
49.32000 174.270
49.36000 175.856
49.40000 175.405
49.44000 176.356
49.48000 173.109
49.52000 175.971
49.56000 176.307
49.60000 179.995
49.64000 178.005
49.68000 167.765
49.72000 172.706
49.76000 170.860
49.80000 174.926
49.84000 169.453
49.88000 181.579
49.92000 176.695
49.96000 182.616
50.00000 177.335
50.04000 173.014
50.08000 171.538
50.12000 182.705
50.16000 192.432
50.20000 183.090
50.24000 174.619
50.28000 185.431
50.32000 191.356
50.36000 192.089
50.40000 191.511
50.44000 202.904
50.48000 209.308
50.52000 233.402
50.56000 229.455
50.60000 238.092
50.64000 251.813
50.68000 257.048
50.72000 268.585
50.76000 269.790
50.80000 260.382
50.84000 254.582
50.88000 246.734
50.92000 243.188
50.96000 225.989
51.00000 224.852
51.04000 221.368
51.08000 198.314
51.12000 199.172
51.16000 191.147
51.20000 186.975
51.24000 185.832
51.28000 189.579
51.32000 188.080
51.36000 176.353
51.40000 179.479
51.44000 171.416
51.48000 172.638
51.52000 170.134
51.56000 172.079
51.60000 166.489
51.64000 172.055
51.68000 169.503
51.72000 170.307
51.76000 161.726
51.80000 162.445
51.84000 166.162
51.88000 168.105
51.92000 170.455
51.96000 156.812
52.00000 157.659
52.04000 170.102
52.08000 164.083
52.12000 151.975
52.16000 164.967
52.20000 162.126
52.24000 158.367
52.28000 163.796
52.32000 161.938
52.36000 166.293
52.40000 168.217
52.44000 163.275
52.48000 172.867
52.52000 158.613
52.56000 162.018
52.60000 161.773
52.64000 159.536
52.68000 161.416
52.72000 169.908
52.76000 160.935
52.80000 157.898
52.84000 153.900
52.88000 157.023
52.92000 159.868
52.96000 157.361
53.00000 159.549
53.04000 168.661
53.08000 160.220
53.12000 153.590
53.16000 163.308
53.20000 161.293
53.24000 153.667
53.28000 161.707
53.32000 153.121
53.36000 165.275
53.40000 156.709
53.44000 158.065
53.48000 160.822
53.52000 155.537
53.56000 157.688
53.60000 154.518
53.64000 152.708
53.68000 157.799
53.72000 144.834
53.76000 156.243
53.80000 165.515
53.84000 165.635
53.88000 163.669
53.92000 167.033
53.96000 166.211
54.00000 160.794
54.04000 160.357
54.08000 157.725
54.12000 159.460
54.16000 153.573
54.20000 148.191
54.24000 149.404
54.28000 159.481
54.32000 156.414
54.36000 169.036
54.40000 163.257
54.44000 163.668
54.48000 155.747
54.52000 160.943
54.56000 171.017
54.60000 161.640
54.64000 160.017
54.68000 147.877
54.72000 153.404
54.76000 159.442
54.80000 150.555
54.84000 156.685
54.88000 155.040
54.92000 154.853
54.96000 177.410
55.00000 162.332
55.04000 166.894
55.08000 161.037
55.12000 151.965
55.16000 170.754
55.20000 179.592
55.24000 174.107
55.28000 174.295
55.32000 178.825
55.36000 173.174
55.40000 187.549
55.44000 186.784
55.48000 199.608
55.52000 200.426
55.56000 218.802
55.60000 240.503
55.64000 251.851
55.68000 292.290
55.72000 331.392
55.76000 357.052
55.80000 441.027
55.84000 477.755
55.88000 533.159
55.92000 585.818
55.96000 559.659
56.00000 575.788
56.04000 558.540
56.08000 517.118
56.12000 481.579
56.16000 453.100
56.20000 389.012
56.24000 355.258
56.28000 324.203
56.32000 277.666
56.36000 245.881
56.40000 240.314
56.44000 235.214
56.48000 213.505
56.52000 202.894
56.56000 202.245
56.60000 184.023
56.64000 185.637
56.68000 171.501
56.72000 178.936
56.76000 152.770
56.80000 165.149
56.84000 173.794
56.88000 165.241
56.92000 160.254
56.96000 152.552
57.00000 154.797
57.04000 149.464
57.08000 151.116
57.12000 144.629
57.16000 154.109
57.20000 147.474
57.24000 147.920
57.28000 141.318
57.32000 149.968
57.36000 135.201
57.40000 150.681
57.44000 151.764
57.48000 145.482
57.52000 149.942
57.56000 149.175
57.60000 155.129
57.64000 140.828
57.68000 141.933
57.72000 139.867
57.76000 145.640
57.80000 152.094
57.84000 147.026
57.88000 153.308
57.92000 140.365
57.96000 143.892
58.00000 133.916
58.04000 143.011
58.08000 141.736
58.12000 145.232
58.16000 142.094
58.20000 139.273
58.24000 141.591
58.28000 145.620
58.32000 139.740
58.36000 134.936
58.40000 140.450
58.44000 144.200
58.48000 142.352
58.52000 133.309
58.56000 143.769
58.60000 135.828
58.64000 142.347
58.68000 145.662
58.72000 148.100
58.76000 137.059
58.80000 127.714
58.84000 127.082
58.88000 146.431
58.92000 133.232
58.96000 136.530
59.00000 133.497
59.04000 136.990
59.08000 130.949
59.12000 131.941
59.16000 135.147
59.20000 138.860
59.24000 143.050
59.28000 140.749
59.32000 141.056
59.36000 143.314
59.40000 140.032
59.44000 141.331
59.48000 137.395
59.52000 136.949
59.56000 128.358
59.60000 135.312
59.64000 133.084
59.68000 140.179
59.72000 130.219
59.76000 136.502
59.80000 130.441
59.84000 130.003
59.88000 121.884
59.92000 131.634
59.96000 135.897
60.00000 135.957
60.04000 136.303
60.08000 131.150
60.12000 122.484
60.16000 133.678
60.20000 140.042
60.24000 133.558
60.28000 138.998
60.32000 146.109
60.36000 130.116
60.40000 131.122
60.44000 141.703
60.48000 130.021
60.52000 140.787
60.56000 137.605
60.60000 136.877
60.64000 132.751
60.68000 131.409
60.72000 135.587
60.76000 135.811
60.80000 141.343
60.84000 134.034
60.88000 141.311
60.92000 127.568
60.96000 137.694
61.00000 143.273
61.04000 133.004
61.08000 135.517
61.12000 135.463
61.16000 136.058
61.20000 143.307
61.24000 145.228
61.28000 134.255
61.32000 139.655
61.36000 128.073
61.40000 139.788
61.44000 139.639
61.48000 154.772
61.52000 187.125
61.56000 249.841
61.60000 299.191
61.64000 328.696
61.68000 334.490
61.72000 344.098
61.76000 311.731
61.80000 250.153
61.84000 197.684
61.88000 163.198
61.92000 156.617
61.96000 143.844
62.00000 145.162
62.04000 138.323
62.08000 151.950
62.12000 143.794
62.16000 136.637
62.20000 136.615
62.24000 146.061
62.28000 140.545
62.32000 158.613
62.36000 145.196
62.40000 136.202
62.44000 151.626
62.48000 140.186
62.52000 147.144
62.56000 140.148
62.60000 150.017
62.64000 142.052
62.68000 141.896
62.72000 146.004
62.76000 153.511
62.80000 159.914
62.84000 148.001
62.88000 143.544
62.92000 157.883
62.96000 142.595
63.00000 138.293
63.04000 142.035
63.08000 147.568
63.12000 142.968
63.16000 140.934
63.20000 150.532
63.24000 138.239
63.28000 155.036
63.32000 155.834
63.36000 146.107
63.40000 154.594
63.44000 140.267
63.48000 154.766
63.52000 146.953
63.56000 154.030
63.60000 158.345
63.64000 151.086
63.68000 163.288
63.72000 156.562
63.76000 164.201
63.80000 163.199
63.84000 161.637
63.88000 167.586
63.92000 158.827
63.96000 159.988
64.00000 162.161
64.04000 164.296
64.08000 155.056
64.12000 159.810
64.16000 161.416
64.20000 154.954
64.24000 157.745
64.28000 183.209
64.32000 159.461
64.36000 161.641
64.40000 174.163
64.44000 169.247
64.48000 172.458
64.52000 169.957
64.56000 172.446
64.60000 169.434
64.64000 181.747
64.68000 176.513
64.72000 193.212
64.76000 191.033
64.80000 196.062
64.84000 189.032
64.88000 186.734
64.92000 189.841
64.96000 192.617
65.00000 209.705
65.04000 216.899
65.08000 219.254
65.12000 218.222
65.16000 215.286
65.20000 233.012
65.24000 244.287
65.28000 266.048
65.32000 280.068
65.36000 299.341
65.40000 327.967
65.44000 354.131
65.48000 364.349
65.52000 405.238
65.56000 442.165
65.60000 462.917
65.64000 530.288
65.68000 619.653
65.72000 847.450
65.76000 1095.367
65.80000 1343.111
65.84000 1487.284
65.88000 1496.309
65.92000 1415.930
65.96000 1208.759
66.00000 814.722
66.04000 586.336
66.08000 448.984
66.12000 388.303
66.16000 379.236
66.20000 363.580
66.24000 369.079
66.28000 414.058
66.32000 483.977
66.36000 518.855
66.40000 510.314
66.44000 541.916
66.48000 543.666
66.52000 478.290
66.56000 429.942
66.60000 374.351
66.64000 354.754
66.68000 348.718
66.72000 360.032
66.76000 356.671
66.80000 354.913
66.84000 351.913
66.88000 381.422
66.92000 381.268
66.96000 385.364
67.00000 408.327
67.04000 397.295
67.08000 391.982
67.12000 408.280
67.16000 401.179
67.20000 400.728
67.24000 419.553
67.28000 435.585
67.32000 451.500
67.36000 446.852
67.40000 453.329
67.44000 460.253
67.48000 464.349
67.52000 462.999
67.56000 491.648
67.60000 483.122
67.64000 525.916
67.68000 509.377
67.72000 537.765
67.76000 533.996
67.80000 556.989
67.84000 565.138
67.88000 570.120
67.92000 587.778
67.96000 606.700
68.00000 602.920
68.04000 588.472
68.08000 637.732
68.12000 645.735
68.16000 667.597
68.20000 685.667
68.24000 712.020
68.28000 735.927
68.32000 761.262
68.36000 800.803
68.40000 814.320
68.44000 856.972
68.48000 892.208
68.52000 962.221
68.56000 1046.008
68.60000 1263.777
68.64000 1468.024
68.68000 1723.384
68.72000 2079.725
68.76000 2447.896
68.80000 2891.698
68.84000 3626.870
68.88000 5144.557
68.92000 9750.478
68.96000 22378.863
69.00000 46427.055
69.04000 70242.586
69.08000 82135.422
69.12000 85280.367
69.16000 88838.820
69.20000 86358.992
69.24000 71396.328
69.28000 55325.184
69.32000 45954.434
69.36000 40840.180
69.40000 32518.891
69.44000 19480.053
69.48000 9234.653
69.52000 4279.964
69.56000 2587.533
69.60000 1921.208
69.64000 1592.736
69.68000 1394.165
69.72000 1234.880
69.76000 1107.974
69.80000 1039.416
69.84000 965.876
69.88000 903.576
69.92000 852.459
69.96000 838.911
70.00000 810.892