File: XRD/22-09-2025 Dep 2/XY Data/BTO_Mapping_Theta2Theta_22-09-2025_001_37_-10-000_0-000.xy
20.00000 577.244
20.04000 575.627
20.08000 574.946
20.12000 573.010
20.16000 558.077
20.20000 554.903
20.24000 582.431
20.28000 568.829
20.32000 586.429
20.36000 567.711
20.40000 551.330
20.44000 576.790
20.48000 561.857
20.52000 542.898
20.56000 565.185
20.60000 556.199
20.64000 562.907
20.68000 589.258
20.72000 560.270
20.76000 568.138
20.80000 559.322
20.84000 592.278
20.88000 560.321
20.92000 572.689
20.96000 583.200
21.00000 587.873
21.04000 580.597
21.08000 566.491
21.12000 560.600
21.16000 582.997
21.20000 551.014
21.24000 555.212
21.28000 550.216
21.32000 556.984
21.36000 567.431
21.40000 548.077
21.44000 554.408
21.48000 569.425
21.52000 558.466
21.56000 559.402
21.60000 586.962
21.64000 584.596
21.68000 585.972
21.72000 619.015
21.76000 645.580
21.80000 678.751
21.84000 693.840
21.88000 764.555
21.92000 802.732
21.96000 844.275
22.00000 880.328
22.04000 868.284
22.08000 869.746
22.12000 857.832
22.16000 801.809
22.20000 784.842
22.24000 700.353
22.28000 680.319
22.32000 640.542
22.36000 613.691
22.40000 595.167
22.44000 583.300
22.48000 575.729
22.52000 554.972
22.56000 559.513
22.60000 546.431
22.64000 535.997
22.68000 545.391
22.72000 526.100
22.76000 527.750
22.80000 528.044
22.84000 526.949
22.88000 532.460
22.92000 529.689
22.96000 502.597
23.00000 513.012
23.04000 519.145
23.08000 529.449
23.12000 516.821
23.16000 526.627
23.20000 521.709
23.24000 524.781
23.28000 505.441
23.32000 520.085
23.36000 519.202
23.40000 506.991
23.44000 524.528
23.48000 509.878
23.52000 508.195
23.56000 485.506
23.60000 507.944
23.64000 511.405
23.68000 493.874
23.72000 499.399
23.76000 495.595
23.80000 496.018
23.84000 518.697
23.88000 523.322
23.92000 507.508
23.96000 524.999
24.00000 496.989
24.04000 502.695
24.08000 499.986
24.12000 499.906
24.16000 509.902
24.20000 518.041
24.24000 502.771
24.28000 489.595
24.32000 498.057
24.36000 497.225
24.40000 462.354
24.44000 497.209
24.48000 472.256
24.52000 486.959
24.56000 490.046
24.60000 495.679
24.64000 487.162
24.68000 481.590
24.72000 484.107
24.76000 491.280
24.80000 489.723
24.84000 483.180
24.88000 482.464
24.92000 486.071
24.96000 485.986
25.00000 482.543
25.04000 476.856
25.08000 481.423
25.12000 486.205
25.16000 479.656
25.20000 479.485
25.24000 492.035
25.28000 468.653
25.32000 472.445
25.36000 479.172
25.40000 461.294
25.44000 460.138
25.48000 475.372
25.52000 464.825
25.56000 479.189
25.60000 463.379
25.64000 478.355
25.68000 470.845
25.72000 470.175
25.76000 471.321
25.80000 471.322
25.84000 478.082
25.88000 467.840
25.92000 466.116
25.96000 463.705
26.00000 481.276
26.04000 466.092
26.08000 484.000
26.12000 463.311
26.16000 450.294
26.20000 471.708
26.24000 471.703
26.28000 454.000
26.32000 471.521
26.36000 476.876
26.40000 457.346
26.44000 459.553
26.48000 486.959
26.52000 458.290
26.56000 466.558
26.60000 475.762
26.64000 474.536
26.68000 458.531
26.72000 440.534
26.76000 435.336
26.80000 459.822
26.84000 440.277
26.88000 465.265
26.92000 459.016
26.96000 445.476
27.00000 465.805
27.04000 456.563
27.08000 432.652
27.12000 429.560
27.16000 461.680
27.20000 449.231
27.24000 456.931
27.28000 450.406
27.32000 446.845
27.36000 438.911
27.40000 437.880
27.44000 445.724
27.48000 432.314
27.52000 447.476
27.56000 445.251
27.60000 442.791
27.64000 437.792
27.68000 441.832
27.72000 436.079
27.76000 448.397
27.80000 446.269
27.84000 441.755
27.88000 438.674
27.92000 435.198
27.96000 419.316
28.00000 446.111
28.04000 452.512
28.08000 428.060
28.12000 431.633
28.16000 442.750
28.20000 430.009
28.24000 443.460
28.28000 434.186
28.32000 437.043
28.36000 431.818
28.40000 423.410
28.44000 433.605
28.48000 426.275
28.52000 440.156
28.56000 417.041
28.60000 416.147
28.64000 425.197
28.68000 428.090
28.72000 424.443
28.76000 435.989
28.80000 427.094
28.84000 431.154
28.88000 417.671
28.92000 410.939
28.96000 411.324
29.00000 414.594
29.04000 411.765
29.08000 413.146
29.12000 412.948
29.16000 410.900
29.20000 420.151
29.24000 416.167
29.28000 424.539
29.32000 422.023
29.36000 417.172
29.40000 416.199
29.44000 429.239
29.48000 421.170
29.52000 392.179
29.56000 424.311
29.60000 423.846
29.64000 424.045
29.68000 432.390
29.72000 416.002
29.76000 419.706
29.80000 426.797
29.84000 429.358
29.88000 438.577
29.92000 443.280
29.96000 448.813
30.00000 454.130
30.04000 456.172
30.08000 445.801
30.12000 464.987
30.16000 449.321
30.20000 445.217
30.24000 432.705
30.28000 440.942
30.32000 426.912
30.36000 430.142
30.40000 444.239
30.44000 422.993
30.48000 429.858
30.52000 434.880
30.56000 435.813
30.60000 441.397
30.64000 469.048
30.68000 443.076
30.72000 440.413
30.76000 455.725
30.80000 475.230
30.84000 490.942
30.88000 535.472
30.92000 558.470
30.96000 557.674
31.00000 614.000
31.04000 694.234
31.08000 867.854
31.12000 1040.009
31.16000 1315.268
31.20000 1706.838
31.24000 2119.195
31.28000 2648.750
31.32000 3023.573
31.36000 3216.695
31.40000 3296.895
31.44000 3192.591
31.48000 2829.176
31.52000 2414.337
31.56000 1958.597
31.60000 1567.928
31.64000 1218.443
31.68000 974.407
31.72000 845.526
31.76000 705.445
31.80000 628.156
31.84000 571.771
31.88000 527.992
31.92000 507.593
31.96000 475.319
32.00000 470.863
32.04000 441.858
32.08000 422.203
32.12000 396.253
32.16000 420.100
32.20000 405.047
32.24000 419.583
32.28000 406.186
32.32000 409.306
32.36000 393.249
32.40000 411.873
32.44000 406.478
32.48000 406.374
32.52000 391.904
32.56000 407.974
32.60000 396.177
32.64000 400.611
32.68000 404.162
32.72000 402.543
32.76000 390.050
32.80000 412.009
32.84000 423.844
32.88000 432.321
32.92000 449.913
32.96000 452.766
33.00000 430.770
33.04000 421.089
33.08000 398.495
33.12000 375.669
33.16000 360.584
33.20000 373.333
33.24000 347.733
33.28000 361.230
33.32000 370.011
33.36000 354.207
33.40000 348.287
33.44000 344.391
33.48000 347.754
33.52000 346.729
33.56000 322.385
33.60000 351.373
33.64000 355.622
33.68000 368.709
33.72000 339.219
33.76000 345.781
33.80000 361.779
33.84000 334.959
33.88000 336.646
33.92000 346.910
33.96000 347.615
34.00000 325.574
34.04000 354.921
34.08000 340.756
34.12000 340.101
34.16000 337.661
34.20000 327.675
34.24000 332.364
34.28000 333.282
34.32000 346.191
34.36000 323.711
34.40000 346.853
34.44000 326.844
34.48000 328.971
34.52000 326.917
34.56000 319.515
34.60000 330.342
34.64000 326.739
34.68000 325.229
34.72000 328.036
34.76000 323.724
34.80000 324.027
34.84000 319.557
34.88000 321.977
34.92000 315.173
34.96000 319.581
35.00000 329.893
35.04000 321.593
35.08000 324.095
35.12000 330.355
35.16000 310.891
35.20000 324.409
35.24000 333.215
35.28000 325.542
35.32000 323.378
35.36000 316.993
35.40000 313.626
35.44000 308.968
35.48000 314.954
35.52000 316.008
35.56000 311.282
35.60000 312.735
35.64000 315.325
35.68000 293.928
35.72000 307.485
35.76000 323.412
35.80000 318.396
35.84000 312.272
35.88000 322.846
35.92000 310.878
35.96000 289.356
36.00000 316.706
36.04000 306.090
36.08000 291.909
36.12000 296.766
36.16000 308.599
36.20000 312.994
36.24000 309.814
36.28000 300.696
36.32000 307.884
36.36000 311.580
36.40000 308.469
36.44000 303.954
36.48000 308.129
36.52000 301.469
36.56000 303.969
36.60000 319.338
36.64000 302.004
36.68000 309.936
36.72000 308.389
36.76000 299.913
36.80000 318.809
36.84000 308.999
36.88000 297.538
36.92000 298.373
36.96000 302.483
37.00000 307.212
37.04000 308.447
37.08000 311.955
37.12000 311.027
37.16000 303.366
37.20000 311.437
37.24000 287.221
37.28000 298.210
37.32000 301.754
37.36000 295.370
37.40000 298.981
37.44000 316.865
37.48000 292.547
37.52000 296.035
37.56000 307.966
37.60000 302.037
37.64000 300.242
37.68000 303.699
37.72000 312.275
37.76000 292.100
37.80000 299.719
37.84000 287.273
37.88000 300.043
37.92000 301.842
37.96000 314.345
38.00000 301.686
38.04000 300.694
38.08000 323.167
38.12000 305.696
38.16000 314.046
38.20000 313.027
38.24000 336.546
38.28000 329.938
38.32000 357.385
38.36000 387.030
38.40000 432.122
38.44000 448.647
38.48000 524.021
38.52000 601.486
38.56000 693.602
38.60000 760.829
38.64000 844.852
38.68000 895.040
38.72000 876.748
38.76000 846.370
38.80000 791.066
38.84000 686.190
38.88000 612.664
38.92000 529.749
38.96000 453.426
39.00000 389.343
39.04000 371.691
39.08000 355.430
39.12000 334.878
39.16000 324.147
39.20000 304.474
39.24000 299.111
39.28000 290.422
39.32000 284.978
39.36000 297.468
39.40000 296.853
39.44000 290.335
39.48000 278.105
39.52000 282.306
39.56000 266.464
39.60000 296.847
39.64000 277.475
39.68000 276.527
39.72000 274.162
39.76000 269.368
39.80000 278.366
39.84000 279.253
39.88000 264.620
39.92000 288.124
39.96000 282.960
40.00000 284.566
40.04000 271.190
40.08000 263.055
40.12000 271.930
40.16000 254.281
40.20000 266.632
40.24000 273.594
40.28000 267.785
40.32000 250.694
40.36000 250.955
40.40000 273.331
40.44000 264.123
40.48000 265.564
40.52000 270.571
40.56000 260.453
40.60000 261.440
40.64000 261.134
40.68000 259.857
40.72000 250.090
40.76000 257.137
40.80000 254.891
40.84000 266.643
40.88000 253.793
40.92000 252.528
40.96000 252.588
41.00000 249.523
41.04000 255.051
41.08000 260.283
41.12000 253.623
41.16000 256.277
41.20000 243.480
41.24000 241.745
41.28000 255.503
41.32000 242.723
41.36000 247.229
41.40000 240.508
41.44000 247.860
41.48000 248.776
41.52000 254.470
41.56000 259.352
41.60000 241.785
41.64000 255.121
41.68000 244.131
41.72000 239.671
41.76000 240.981
41.80000 230.012
41.84000 245.954
41.88000 250.830
41.92000 234.831
41.96000 242.604
42.00000 252.005
42.04000 236.904
42.08000 241.805
42.12000 234.844
42.16000 249.899
42.20000 243.114
42.24000 240.631
42.28000 239.048
42.32000 242.061
42.36000 239.724
42.40000 255.128
42.44000 246.111
42.48000 245.183
42.52000 228.605
42.56000 236.255
42.60000 242.497
42.64000 237.253
42.68000 239.003
42.72000 237.453
42.76000 236.260
42.80000 236.481
42.84000 232.114
42.88000 227.374
42.92000 240.279
42.96000 241.067
43.00000 237.142
43.04000 230.802
43.08000 237.699
43.12000 239.365
43.16000 233.676
43.20000 244.542
43.24000 232.480
43.28000 235.633
43.32000 239.025
43.36000 234.023
43.40000 232.926
43.44000 229.830
43.48000 228.215
43.52000 221.067
43.56000 229.980
43.60000 226.458
43.64000 232.441
43.68000 221.008
43.72000 224.474
43.76000 222.758
43.80000 230.020
43.84000 239.713
43.88000 223.229
43.92000 229.168
43.96000 232.669
44.00000 218.599
44.04000 230.379
44.08000 243.661
44.12000 239.288
44.16000 235.058
44.20000 224.612
44.24000 234.132
44.28000 254.943
44.32000 247.251
44.36000 242.004
44.40000 243.467
44.44000 240.867
44.48000 250.374
44.52000 259.507
44.56000 266.988
44.60000 279.893
44.64000 298.648
44.68000 305.335
44.72000 315.984
44.76000 342.095
44.80000 366.586
44.84000 407.219
44.88000 414.504
44.92000 451.880
44.96000 460.793
45.00000 480.037
45.04000 500.462
45.08000 505.561
45.12000 469.830
45.16000 475.290
45.20000 413.175
45.24000 392.836
45.28000 378.939
45.32000 345.443
45.36000 344.170
45.40000 327.470
45.44000 308.535
45.48000 303.176
45.52000 285.119
45.56000 280.831
45.60000 280.005
45.64000 264.794
45.68000 260.301
45.72000 251.207
45.76000 243.175
45.80000 240.191
45.84000 239.783
45.88000 231.306
45.92000 220.380
45.96000 222.297
46.00000 217.510
46.04000 225.984
46.08000 217.094
46.12000 211.321
46.16000 209.880
46.20000 214.162
46.24000 209.758
46.28000 209.702
46.32000 203.334
46.36000 209.190
46.40000 206.719
46.44000 210.494
46.48000 203.181
46.52000 213.044
46.56000 209.051
46.60000 206.906
46.64000 193.296
46.68000 199.398
46.72000 198.443
46.76000 196.943
46.80000 190.214
46.84000 209.594
46.88000 202.694
46.92000 197.978
46.96000 186.684
47.00000 190.113
47.04000 210.003
47.08000 197.150
47.12000 188.925
47.16000 198.475
47.20000 203.635
47.24000 198.019
47.28000 193.671
47.32000 187.442
47.36000 201.482
47.40000 185.905
47.44000 185.712
47.48000 184.416
47.52000 192.215
47.56000 192.489
47.60000 188.946
47.64000 192.455
47.68000 192.714
47.72000 197.561
47.76000 198.180
47.80000 188.398
47.84000 194.362
47.88000 189.409
47.92000 192.696
47.96000 187.676
48.00000 185.482
48.04000 181.006
48.08000 184.063
48.12000 184.282
48.16000 179.013
48.20000 178.108
48.24000 186.421
48.28000 181.184
48.32000 188.801
48.36000 190.939
48.40000 186.409
48.44000 187.397
48.48000 191.856
48.52000 183.395
48.56000 187.647
48.60000 184.345
48.64000 185.071
48.68000 185.468
48.72000 190.316
48.76000 177.299
48.80000 184.180
48.84000 179.792
48.88000 178.723
48.92000 171.656
48.96000 182.706
49.00000 181.287
49.04000 191.630
49.08000 186.412
49.12000 184.516
49.16000 181.476
49.20000 179.306
49.24000 184.095
49.28000 189.880
49.32000 193.241
49.36000 168.958
49.40000 181.394
49.44000 177.544
49.48000 177.561
49.52000 185.283
49.56000 188.106
49.60000 188.958
49.64000 178.620
49.68000 182.495
49.72000 181.022
49.76000 178.888
49.80000 179.986
49.84000 183.701
49.88000 173.647
49.92000 178.334
49.96000 195.723
50.00000 181.971
50.04000 182.613
50.08000 186.577
50.12000 181.447
50.16000 181.879
50.20000 188.904
50.24000 182.961
50.28000 190.854
50.32000 198.351
50.36000 204.414
50.40000 207.208
50.44000 208.671
50.48000 226.310
50.52000 237.118
50.56000 260.442
50.60000 257.112
50.64000 276.880
50.68000 267.493
50.72000 282.494
50.76000 272.736
50.80000 241.251
50.84000 262.234
50.88000 253.446
50.92000 238.145
50.96000 223.943
51.00000 216.952
51.04000 207.920
51.08000 200.362
51.12000 191.043
51.16000 185.413
51.20000 188.163
51.24000 198.778
51.28000 184.654
51.32000 181.714
51.36000 172.828
51.40000 175.785
51.44000 181.721
51.48000 178.700
51.52000 163.531
51.56000 170.511
51.60000 157.717
51.64000 167.625
51.68000 176.762
51.72000 167.522
51.76000 156.835
51.80000 168.417
51.84000 164.777
51.88000 164.731
51.92000 169.173
51.96000 173.592
52.00000 162.522
52.04000 163.715
52.08000 165.860
52.12000 159.718
52.16000 161.218
52.20000 171.227
52.24000 163.998
52.28000 155.608
52.32000 159.618
52.36000 170.477
52.40000 169.317
52.44000 171.416
52.48000 169.976
52.52000 167.513
52.56000 161.192
52.60000 165.877
52.64000 172.480
52.68000 174.631
52.72000 164.393
52.76000 160.442
52.80000 177.551
52.84000 155.129
52.88000 150.243
52.92000 156.020
52.96000 154.767
53.00000 156.288
53.04000 156.641
53.08000 171.913
53.12000 154.504
53.16000 162.998
53.20000 169.081
53.24000 158.707
53.28000 155.443
53.32000 164.944
53.36000 168.957
53.40000 158.032
53.44000 171.827
53.48000 159.071
53.52000 159.778
53.56000 161.968
53.60000 161.027
53.64000 154.406
53.68000 154.365
53.72000 164.251
53.76000 165.011
53.80000 169.051
53.84000 158.646
53.88000 159.889
53.92000 168.844
53.96000 152.692
54.00000 155.658
54.04000 159.187
54.08000 158.598
54.12000 138.153
54.16000 153.253
54.20000 157.037
54.24000 160.805
54.28000 160.883
54.32000 155.612
54.36000 151.412
54.40000 160.558
54.44000 171.557
54.48000 163.233
54.52000 158.893
54.56000 154.792
54.60000 160.871
54.64000 161.069
54.68000 160.380
54.72000 157.070
54.76000 148.390
54.80000 166.279
54.84000 166.343
54.88000 160.539
54.92000 166.820
54.96000 168.215
55.00000 171.126
55.04000 169.026
55.08000 175.373
55.12000 173.165
55.16000 162.476
55.20000 165.564
55.24000 175.346
55.28000 177.049
55.32000 176.203
55.36000 182.475
55.40000 210.643
55.44000 202.402
55.48000 212.755
55.52000 216.893
55.56000 240.221
55.60000 260.583
55.64000 315.198
55.68000 332.028
55.72000 384.795
55.76000 422.677
55.80000 500.548
55.84000 549.394
55.88000 566.066
55.92000 590.140
55.96000 574.866
56.00000 568.516
56.04000 529.871
56.08000 485.847
56.12000 444.015
56.16000 413.320
56.20000 369.700
56.24000 331.854
56.28000 295.887
56.32000 283.772
56.36000 242.845
56.40000 239.823
56.44000 226.920
56.48000 200.731
56.52000 198.603
56.56000 188.416
56.60000 175.167
56.64000 180.877
56.68000 175.296
56.72000 171.932
56.76000 157.217
56.80000 160.876
56.84000 156.727
56.88000 165.920
56.92000 152.095
56.96000 150.804
57.00000 150.671
57.04000 154.825
57.08000 147.095
57.12000 146.408
57.16000 148.788
57.20000 155.499
57.24000 164.366
57.28000 151.109
57.32000 150.577
57.36000 148.633
57.40000 150.413
57.44000 149.322
57.48000 148.484
57.52000 148.147
57.56000 143.306
57.60000 154.688
57.64000 141.354
57.68000 150.810
57.72000 158.240
57.76000 145.806
57.80000 138.540
57.84000 138.762
57.88000 135.061
57.92000 143.445
57.96000 148.258
58.00000 144.390
58.04000 139.288
58.08000 141.233
58.12000 134.944
58.16000 138.506
58.20000 148.853
58.24000 137.003
58.28000 142.348
58.32000 147.277
58.36000 139.820
58.40000 134.335
58.44000 136.266
58.48000 148.000
58.52000 145.985
58.56000 148.194
58.60000 142.132
58.64000 140.360
58.68000 138.118
58.72000 134.566
58.76000 141.006
58.80000 141.328
58.84000 122.294
58.88000 146.296
58.92000 148.312
58.96000 130.799
59.00000 137.187
59.04000 134.456
59.08000 132.869
59.12000 132.723
59.16000 143.361
59.20000 128.929
59.24000 127.201
59.28000 134.534
59.32000 136.690
59.36000 149.576
59.40000 131.146
59.44000 135.066
59.48000 137.900
59.52000 133.894
59.56000 137.500
59.60000 129.401
59.64000 132.571
59.68000 123.987
59.72000 128.469
59.76000 132.190
59.80000 138.805
59.84000 138.402
59.88000 138.072
59.92000 135.188
59.96000 132.602
60.00000 154.063
60.04000 142.876
60.08000 134.364
60.12000 137.799
60.16000 132.071
60.20000 137.177
60.24000 139.635
60.28000 141.594
60.32000 136.508
60.36000 137.986
60.40000 132.232
60.44000 138.499
60.48000 132.060
60.52000 134.682
60.56000 147.542
60.60000 129.613
60.64000 129.464
60.68000 135.229
60.72000 132.508
60.76000 132.232
60.80000 130.158
60.84000 139.181
60.88000 126.713
60.92000 139.246
60.96000 130.955
61.00000 135.354
61.04000 138.156
61.08000 142.228
61.12000 135.845
61.16000 145.968
61.20000 133.324
61.24000 140.855
61.28000 149.289
61.32000 143.158
61.36000 149.358
61.40000 143.388
61.44000 145.685
61.48000 161.045
61.52000 198.422
61.56000 249.004
61.60000 308.355
61.64000 361.036
61.68000 368.014
61.72000 370.872
61.76000 354.502
61.80000 282.645
61.84000 212.406
61.88000 156.795
61.92000 159.712
61.96000 156.880
62.00000 155.147
62.04000 154.221
62.08000 151.828
62.12000 149.739
62.16000 142.247
62.20000 148.056
62.24000 142.983
62.28000 141.904
62.32000 144.111
62.36000 143.059
62.40000 134.405
62.44000 145.120
62.48000 139.720
62.52000 149.729
62.56000 150.622
62.60000 149.648
62.64000 153.770
62.68000 154.914
62.72000 148.694
62.76000 140.150
62.80000 140.311
62.84000 141.894
62.88000 149.385
62.92000 155.806
62.96000 141.877
63.00000 152.704
63.04000 149.495
63.08000 144.425
63.12000 157.705
63.16000 157.146
63.20000 160.224
63.24000 158.026
63.28000 158.125
63.32000 146.411
63.36000 142.678
63.40000 144.415
63.44000 159.003
63.48000 156.434
63.52000 144.880
63.56000 156.629
63.60000 157.167
63.64000 155.491
63.68000 140.752
63.72000 161.031
63.76000 169.262
63.80000 159.734
63.84000 159.018
63.88000 151.171
63.92000 168.451
63.96000 162.313
64.00000 160.556
64.04000 159.949
64.08000 167.013
64.12000 163.651
64.16000 163.680
64.20000 173.160
64.24000 167.671
64.28000 171.213
64.32000 177.579
64.36000 170.545
64.40000 167.460
64.44000 169.771
64.48000 163.663
64.52000 180.251
64.56000 177.117
64.60000 181.249
64.64000 187.524
64.68000 186.036
64.72000 182.029
64.76000 177.375
64.80000 199.030
64.84000 191.527
64.88000 193.564
64.92000 197.516
64.96000 196.028
65.00000 202.203
65.04000 204.640
65.08000 217.165
65.12000 241.066
65.16000 231.459
65.20000 249.531
65.24000 266.703
65.28000 279.477
65.32000 292.759
65.36000 318.366
65.40000 353.379
65.44000 383.656
65.48000 378.660
65.52000 411.479
65.56000 446.735
65.60000 465.874
65.64000 511.928
65.68000 637.253
65.72000 848.218
65.76000 1123.923
65.80000 1386.784
65.84000 1582.153
65.88000 1589.959
65.92000 1521.135
65.96000 1321.572
66.00000 907.394
66.04000 597.397
66.08000 458.462
66.12000 396.827
66.16000 369.677
66.20000 382.190
66.24000 396.230
66.28000 425.843
66.32000 485.023
66.36000 558.316
66.40000 557.311
66.44000 562.922
66.48000 575.959
66.52000 494.483
66.56000 457.114
66.60000 391.206
66.64000 369.004
66.68000 372.179
66.72000 350.231
66.76000 366.343
66.80000 384.207
66.84000 375.598
66.88000 384.818
66.92000 374.135
66.96000 395.880
67.00000 393.400
67.04000 411.590
67.08000 397.947
67.12000 417.147
67.16000 437.637
67.20000 411.058
67.24000 439.162
67.28000 460.601
67.32000 450.208
67.36000 470.588
67.40000 495.249
67.44000 500.840
67.48000 493.923
67.52000 503.445
67.56000 516.547
67.60000 533.604
67.64000 548.868
67.68000 545.708
67.72000 554.975
67.76000 560.176
67.80000 570.449
67.84000 573.887
67.88000 603.238
67.92000 630.879
67.96000 607.158
68.00000 624.723
68.04000 648.064
68.08000 678.640
68.12000 682.252
68.16000 710.275
68.20000 703.161
68.24000 737.571
68.28000 752.684
68.32000 777.034
68.36000 823.940
68.40000 857.162
68.44000 890.338
68.48000 960.356
68.52000 1021.836
68.56000 1133.962
68.60000 1307.679
68.64000 1553.958
68.68000 1854.964
68.72000 2184.272
68.76000 2531.984
68.80000 3074.028
68.84000 3788.720
68.88000 5375.731
68.92000 10052.054
68.96000 23185.746
69.00000 49114.211
69.04000 75823.133
69.08000 89619.625
69.12000 93242.039
69.16000 96838.844
69.20000 95175.711
69.24000 79082.453
69.28000 61260.348
69.32000 50710.344
69.36000 45060.137
69.40000 36372.387
69.44000 21934.072
69.48000 10400.134
69.52000 4761.958
69.56000 2825.175
69.60000 2043.607
69.64000 1700.418
69.68000 1460.321
69.72000 1297.502
69.76000 1198.808
69.80000 1106.515
69.84000 1029.444
69.88000 941.395
69.92000 893.567
69.96000 863.545
70.00000 856.346