File: XRD/22-09-2025 Dep 2/XY Data/BTO_Mapping_Theta2Theta_22-09-2025_001_27_-6-235_7-818.xy
20.00000 567.567
20.04000 568.247
20.08000 580.122
20.12000 542.494
20.16000 572.116
20.20000 542.558
20.24000 566.392
20.28000 574.422
20.32000 543.245
20.36000 575.991
20.40000 567.173
20.44000 561.499
20.48000 573.261
20.52000 572.252
20.56000 570.803
20.60000 566.188
20.64000 568.050
20.68000 568.303
20.72000 561.607
20.76000 557.735
20.80000 561.428
20.84000 540.299
20.88000 573.864
20.92000 562.257
20.96000 562.729
21.00000 558.270
21.04000 560.330
21.08000 569.229
21.12000 541.451
21.16000 524.091
21.20000 555.598
21.24000 549.994
21.28000 564.884
21.32000 560.524
21.36000 578.428
21.40000 559.663
21.44000 548.903
21.48000 576.643
21.52000 565.905
21.56000 553.182
21.60000 560.024
21.64000 582.681
21.68000 596.808
21.72000 608.531
21.76000 607.580
21.80000 639.613
21.84000 675.767
21.88000 720.935
21.92000 785.579
21.96000 828.385
22.00000 870.734
22.04000 868.710
22.08000 889.598
22.12000 819.052
22.16000 811.375
22.20000 766.345
22.24000 716.969
22.28000 673.652
22.32000 656.456
22.36000 621.658
22.40000 615.466
22.44000 594.985
22.48000 573.219
22.52000 562.212
22.56000 549.929
22.60000 532.359
22.64000 538.168
22.68000 546.287
22.72000 546.711
22.76000 546.802
22.80000 524.870
22.84000 542.331
22.88000 520.177
22.92000 538.263
22.96000 523.816
23.00000 535.560
23.04000 509.994
23.08000 524.214
23.12000 514.202
23.16000 529.917
23.20000 514.521
23.24000 510.485
23.28000 515.470
23.32000 506.524
23.36000 509.634
23.40000 498.707
23.44000 509.649
23.48000 495.576
23.52000 508.622
23.56000 530.062
23.60000 502.266
23.64000 517.576
23.68000 504.672
23.72000 503.230
23.76000 503.178
23.80000 519.120
23.84000 504.836
23.88000 522.071
23.92000 490.521
23.96000 484.356
24.00000 491.518
24.04000 514.737
24.08000 500.065
24.12000 479.382
24.16000 518.162
24.20000 508.681
24.24000 504.380
24.28000 497.608
24.32000 494.374
24.36000 503.845
24.40000 484.962
24.44000 492.043
24.48000 484.992
24.52000 471.202
24.56000 493.606
24.60000 483.347
24.64000 482.262
24.68000 470.116
24.72000 490.136
24.76000 483.687
24.80000 467.721
24.84000 493.701
24.88000 488.091
24.92000 485.131
24.96000 489.489
25.00000 476.589
25.04000 488.854
25.08000 468.579
25.12000 484.983
25.16000 495.154
25.20000 475.125
25.24000 477.421
25.28000 458.405
25.32000 473.057
25.36000 470.564
25.40000 473.489
25.44000 465.309
25.48000 477.505
25.52000 479.330
25.56000 476.000
25.60000 476.911
25.64000 482.612
25.68000 464.945
25.72000 475.898
25.76000 474.294
25.80000 465.320
25.84000 463.895
25.88000 473.155
25.92000 474.306
25.96000 459.549
26.00000 449.445
26.04000 465.650
26.08000 462.939
26.12000 459.001
26.16000 472.636
26.20000 445.618
26.24000 457.878
26.28000 461.060
26.32000 464.335
26.36000 455.092
26.40000 474.462
26.44000 457.873
26.48000 461.411
26.52000 463.672
26.56000 454.335
26.60000 457.675
26.64000 466.850
26.68000 462.823
26.72000 454.940
26.76000 460.225
26.80000 468.635
26.84000 465.939
26.88000 434.076
26.92000 461.219
26.96000 449.690
27.00000 434.719
27.04000 461.148
27.08000 435.592
27.12000 430.701
27.16000 437.526
27.20000 443.456
27.24000 452.832
27.28000 443.854
27.32000 433.000
27.36000 448.078
27.40000 441.756
27.44000 424.055
27.48000 437.319
27.52000 458.151
27.56000 448.461
27.60000 445.920
27.64000 419.851
27.68000 419.787
27.72000 432.546
27.76000 438.688
27.80000 435.543
27.84000 437.557
27.88000 426.545
27.92000 449.848
27.96000 441.682
28.00000 433.799
28.04000 430.239
28.08000 443.254
28.12000 447.280
28.16000 435.773
28.20000 435.929
28.24000 438.028
28.28000 449.154
28.32000 448.745
28.36000 419.410
28.40000 416.694
28.44000 416.257
28.48000 423.296
28.52000 423.748
28.56000 430.697
28.60000 429.931
28.64000 426.026
28.68000 419.757
28.72000 440.909
28.76000 424.258
28.80000 425.029
28.84000 416.372
28.88000 424.868
28.92000 418.939
28.96000 412.768
29.00000 420.892
29.04000 424.642
29.08000 428.863
29.12000 435.422
29.16000 434.012
29.20000 407.407
29.24000 423.054
29.28000 419.430
29.32000 407.338
29.36000 423.156
29.40000 416.033
29.44000 420.397
29.48000 436.659
29.52000 414.392
29.56000 414.224
29.60000 443.404
29.64000 411.412
29.68000 406.893
29.72000 410.249
29.76000 417.391
29.80000 407.661
29.84000 443.236
29.88000 448.611
29.92000 429.582
29.96000 443.628
30.00000 454.414
30.04000 471.288
30.08000 450.553
30.12000 448.824
30.16000 460.669
30.20000 458.162
30.24000 442.447
30.28000 454.690
30.32000 465.534
30.36000 426.522
30.40000 443.907
30.44000 430.873
30.48000 448.030
30.52000 449.324
30.56000 451.571
30.60000 439.017
30.64000 463.446
30.68000 469.813
30.72000 478.096
30.76000 492.787
30.80000 500.542
30.84000 496.861
30.88000 523.287
30.92000 541.583
30.96000 568.581
31.00000 640.905
31.04000 717.110
31.08000 853.424
31.12000 1071.469
31.16000 1340.646
31.20000 1720.802
31.24000 2169.781
31.28000 2684.153
31.32000 3108.784
31.36000 3377.857
31.40000 3427.622
31.44000 3254.566
31.48000 2926.539
31.52000 2410.897
31.56000 1984.453
31.60000 1582.367
31.64000 1262.504
31.68000 1022.617
31.72000 851.278
31.76000 739.412
31.80000 641.252
31.84000 566.860
31.88000 526.952
31.92000 496.407
31.96000 482.044
32.00000 468.767
32.04000 436.689
32.08000 426.374
32.12000 437.930
32.16000 427.057
32.20000 438.905
32.24000 397.251
32.28000 400.547
32.32000 406.074
32.36000 408.495
32.40000 408.200
32.44000 387.390
32.48000 402.837
32.52000 409.072
32.56000 409.139
32.60000 406.237
32.64000 391.829
32.68000 384.828
32.72000 394.606
32.76000 411.337
32.80000 400.674
32.84000 421.819
32.88000 438.241
32.92000 438.998
32.96000 440.660
33.00000 439.091
33.04000 404.677
33.08000 386.417
33.12000 365.169
33.16000 360.421
33.20000 359.976
33.24000 364.536
33.28000 355.796
33.32000 361.802
33.36000 348.777
33.40000 354.799
33.44000 361.929
33.48000 350.745
33.52000 349.834
33.56000 350.002
33.60000 355.468
33.64000 336.757
33.68000 345.763
33.72000 335.367
33.76000 347.430
33.80000 351.000
33.84000 344.327
33.88000 351.324
33.92000 337.080
33.96000 335.230
34.00000 334.187
34.04000 338.456
34.08000 334.856
34.12000 348.411
34.16000 327.903
34.20000 334.710
34.24000 327.794
34.28000 336.537
34.32000 330.747
34.36000 332.377
34.40000 331.691
34.44000 333.836
34.48000 317.355
34.52000 343.451
34.56000 336.938
34.60000 321.630
34.64000 336.875
34.68000 331.851
34.72000 327.564
34.76000 324.580
34.80000 321.734
34.84000 323.004
34.88000 327.418
34.92000 338.907
34.96000 317.568
35.00000 321.126
35.04000 320.749
35.08000 323.620
35.12000 319.552
35.16000 317.356
35.20000 322.071
35.24000 320.196
35.28000 322.439
35.32000 302.196
35.36000 326.708
35.40000 329.467
35.44000 312.740
35.48000 313.477
35.52000 309.845
35.56000 326.600
35.60000 313.969
35.64000 315.896
35.68000 300.857
35.72000 317.123
35.76000 305.108
35.80000 298.508
35.84000 312.197
35.88000 310.037
35.92000 306.803
35.96000 305.475
36.00000 313.024
36.04000 306.339
36.08000 317.123
36.12000 300.010
36.16000 310.729
36.20000 289.642
36.24000 307.621
36.28000 297.248
36.32000 308.017
36.36000 295.064
36.40000 301.954
36.44000 316.125
36.48000 295.028
36.52000 295.355
36.56000 292.357
36.60000 310.688
36.64000 301.832
36.68000 305.709
36.72000 302.153
36.76000 297.264
36.80000 288.970
36.84000 307.332
36.88000 292.282
36.92000 311.965
36.96000 305.899
37.00000 326.518
37.04000 296.391
37.08000 295.930
37.12000 323.635
37.16000 301.096
37.20000 305.566
37.24000 299.172
37.28000 302.303
37.32000 295.800
37.36000 308.650
37.40000 305.147
37.44000 299.489
37.48000 292.849
37.52000 301.924
37.56000 277.421
37.60000 291.147
37.64000 304.787
37.68000 287.650
37.72000 310.341
37.76000 307.763
37.80000 299.774
37.84000 288.133
37.88000 297.532
37.92000 301.684
37.96000 309.033
38.00000 307.932
38.04000 310.732
38.08000 308.506
38.12000 310.756
38.16000 320.848
38.20000 326.135
38.24000 339.465
38.28000 342.916
38.32000 347.747
38.36000 396.066
38.40000 410.901
38.44000 455.928
38.48000 505.925
38.52000 571.735
38.56000 677.877
38.60000 796.181
38.64000 874.401
38.68000 914.707
38.72000 902.378
38.76000 871.348
38.80000 817.543
38.84000 728.941
38.88000 611.506
38.92000 539.931
38.96000 453.912
39.00000 424.412
39.04000 390.319
39.08000 348.189
39.12000 341.849
39.16000 311.041
39.20000 309.566
39.24000 308.153
39.28000 289.158
39.32000 282.626
39.36000 283.501
39.40000 284.833
39.44000 281.696
39.48000 282.921
39.52000 302.604
39.56000 280.089
39.60000 287.537
39.64000 271.903
39.68000 261.640
39.72000 273.001
39.76000 282.112
39.80000 265.050
39.84000 249.048
39.88000 277.158
39.92000 279.986
39.96000 277.998
40.00000 262.370
40.04000 274.784
40.08000 260.501
40.12000 271.433
40.16000 269.087
40.20000 273.934
40.24000 255.540
40.28000 273.713
40.32000 259.546
40.36000 263.731
40.40000 270.541
40.44000 248.305
40.48000 243.680
40.52000 257.237
40.56000 251.477
40.60000 260.282
40.64000 251.113
40.68000 249.417
40.72000 245.280
40.76000 255.853
40.80000 243.654
40.84000 255.045
40.88000 258.327
40.92000 256.456
40.96000 246.712
41.00000 259.817
41.04000 257.251
41.08000 274.283
41.12000 265.024
41.16000 257.488
41.20000 259.591
41.24000 241.072
41.28000 233.968
41.32000 260.905
41.36000 260.321
41.40000 254.989
41.44000 230.414
41.48000 231.349
41.52000 242.338
41.56000 235.757
41.60000 242.643
41.64000 244.878
41.68000 236.226
41.72000 228.853
41.76000 229.448
41.80000 245.373
41.84000 250.123
41.88000 244.698
41.92000 247.970
41.96000 231.711
42.00000 251.049
42.04000 229.201
42.08000 238.229
42.12000 248.944
42.16000 247.321
42.20000 244.069
42.24000 234.188
42.28000 244.911
42.32000 221.157
42.36000 248.806
42.40000 232.714
42.44000 237.442
42.48000 238.691
42.52000 244.959
42.56000 220.866
42.60000 232.887
42.64000 245.293
42.68000 241.308
42.72000 233.815
42.76000 227.896
42.80000 227.072
42.84000 236.663
42.88000 233.426
42.92000 244.101
42.96000 245.925
43.00000 241.132
43.04000 233.286
43.08000 226.719
43.12000 229.416
43.16000 233.593
43.20000 230.711
43.24000 239.779
43.28000 226.901
43.32000 234.669
43.36000 234.143
43.40000 232.789
43.44000 241.504
43.48000 237.300
43.52000 225.071
43.56000 230.475
43.60000 235.360
43.64000 227.050
43.68000 220.901
43.72000 228.573
43.76000 230.569
43.80000 247.785
43.84000 227.533
43.88000 222.276
43.92000 233.283
43.96000 220.906
44.00000 227.442
44.04000 225.800
44.08000 238.856
44.12000 228.746
44.16000 218.121
44.20000 231.019
44.24000 237.569
44.28000 238.254
44.32000 237.098
44.36000 239.587
44.40000 237.057
44.44000 240.175
44.48000 248.645
44.52000 244.724
44.56000 282.638
44.60000 259.606
44.64000 255.115
44.68000 276.276
44.72000 295.606
44.76000 305.722
44.80000 333.586
44.84000 372.925
44.88000 387.282
44.92000 415.390
44.96000 436.306
45.00000 457.133
45.04000 489.396
45.08000 462.737
45.12000 465.464
45.16000 435.660
45.20000 423.109
45.24000 418.206
45.28000 388.246
45.32000 367.589
45.36000 356.739
45.40000 319.068
45.44000 315.288
45.48000 311.867
45.52000 292.997
45.56000 275.963
45.60000 276.044
45.64000 262.759
45.68000 267.686
45.72000 249.508
45.76000 253.927
45.80000 250.683
45.84000 230.516
45.88000 231.978
45.92000 238.090
45.96000 227.677
46.00000 216.118
46.04000 223.681
46.08000 227.228
46.12000 214.217
46.16000 224.507
46.20000 209.929
46.24000 206.705
46.28000 213.508
46.32000 202.974
46.36000 202.313
46.40000 209.484
46.44000 210.739
46.48000 213.884
46.52000 192.235
46.56000 195.281
46.60000 186.862
46.64000 202.405
46.68000 209.191
46.72000 216.654
46.76000 195.611
46.80000 206.583
46.84000 194.364
46.88000 203.068
46.92000 201.332
46.96000 201.939
47.00000 195.467
47.04000 205.914
47.08000 199.509
47.12000 191.154
47.16000 203.193
47.20000 184.617
47.24000 202.165
47.28000 188.316
47.32000 190.702
47.36000 186.783
47.40000 195.079
47.44000 180.778
47.48000 198.302
47.52000 188.279
47.56000 196.582
47.60000 189.685
47.64000 190.614
47.68000 186.904
47.72000 188.198
47.76000 186.678
47.80000 179.255
47.84000 193.801
47.88000 179.394
47.92000 185.789
47.96000 179.381
48.00000 199.216
48.04000 190.176
48.08000 192.315
48.12000 190.505
48.16000 187.104
48.20000 183.052
48.24000 185.270
48.28000 187.083
48.32000 183.232
48.36000 187.585
48.40000 195.975
48.44000 181.700
48.48000 185.878
48.52000 178.545
48.56000 174.686
48.60000 187.594
48.64000 183.273
48.68000 184.559
48.72000 185.461
48.76000 190.886
48.80000 198.707
48.84000 177.699
48.88000 191.917
48.92000 174.954
48.96000 177.872
49.00000 178.296
49.04000 178.565
49.08000 189.662
49.12000 182.928
49.16000 176.757
49.20000 180.200
49.24000 183.251
49.28000 179.015
49.32000 185.020
49.36000 184.356
49.40000 180.037
49.44000 179.786
49.48000 183.130
49.52000 181.315
49.56000 180.410
49.60000 177.403
49.64000 196.415
49.68000 182.251
49.72000 171.182
49.76000 180.269
49.80000 178.709
49.84000 171.749
49.88000 191.546
49.92000 179.351
49.96000 183.833
50.00000 186.587
50.04000 168.062
50.08000 172.071
50.12000 179.203
50.16000 194.387
50.20000 182.850
50.24000 189.421
50.28000 189.781
50.32000 184.411
50.36000 193.598
50.40000 207.645
50.44000 208.242
50.48000 210.883
50.52000 226.611
50.56000 249.836
50.60000 252.391
50.64000 260.041
50.68000 263.587
50.72000 262.859
50.76000 272.891
50.80000 277.471
50.84000 256.073
50.88000 238.329
50.92000 228.895
50.96000 214.825
51.00000 208.304
51.04000 199.676
51.08000 208.292
51.12000 202.650
51.16000 194.692
51.20000 185.060
51.24000 194.853
51.28000 191.845
51.32000 173.281
51.36000 176.847
51.40000 183.351
51.44000 175.484
51.48000 172.331
51.52000 171.204
51.56000 167.963
51.60000 175.838
51.64000 186.637
51.68000 159.999
51.72000 169.361
51.76000 172.002
51.80000 163.919
51.84000 173.596
51.88000 163.165
51.92000 176.303
51.96000 164.111
52.00000 169.850
52.04000 161.974
52.08000 158.093
52.12000 164.914
52.16000 170.231
52.20000 168.934
52.24000 159.544
52.28000 163.411
52.32000 160.871
52.36000 165.549
52.40000 158.235
52.44000 157.976
52.48000 165.709
52.52000 171.518
52.56000 167.352
52.60000 158.589
52.64000 153.059
52.68000 160.033
52.72000 177.780
52.76000 162.480
52.80000 161.208
52.84000 164.906
52.88000 162.269
52.92000 165.785
52.96000 164.050
53.00000 155.880
53.04000 160.698
53.08000 170.015
53.12000 159.133
53.16000 164.893
53.20000 165.390
53.24000 152.152
53.28000 156.169
53.32000 149.004
53.36000 172.856
53.40000 170.679
53.44000 166.350
53.48000 166.677
53.52000 165.611
53.56000 162.103
53.60000 155.427
53.64000 159.422
53.68000 159.003
53.72000 149.339
53.76000 153.359
53.80000 155.109
53.84000 161.967
53.88000 145.584
53.92000 152.274
53.96000 155.332
54.00000 158.568
54.04000 158.994
54.08000 164.633
54.12000 167.808
54.16000 154.886
54.20000 168.902
54.24000 148.173
54.28000 159.365
54.32000 168.351
54.36000 170.371
54.40000 159.619
54.44000 160.545
54.48000 162.547
54.52000 169.439
54.56000 158.045
54.60000 152.339
54.64000 167.138
54.68000 164.098
54.72000 155.059
54.76000 160.582
54.80000 151.896
54.84000 162.897
54.88000 160.403
54.92000 158.680
54.96000 149.711
55.00000 167.598
55.04000 161.425
55.08000 168.395
55.12000 165.344
55.16000 160.789
55.20000 180.698
55.24000 172.851
55.28000 175.133
55.32000 181.421
55.36000 176.942
55.40000 202.609
55.44000 199.214
55.48000 204.402
55.52000 228.170
55.56000 248.357
55.60000 254.903
55.64000 296.310
55.68000 328.356
55.72000 375.636
55.76000 419.311
55.80000 461.088
55.84000 508.482
55.88000 563.009
55.92000 574.524
55.96000 581.112
56.00000 575.823
56.04000 546.402
56.08000 512.058
56.12000 455.302
56.16000 418.201
56.20000 370.736
56.24000 338.616
56.28000 283.233
56.32000 262.470
56.36000 249.585
56.40000 236.388
56.44000 217.380
56.48000 212.011
56.52000 201.824
56.56000 189.906
56.60000 183.828
56.64000 175.013
56.68000 176.531
56.72000 164.947
56.76000 178.647
56.80000 164.465
56.84000 165.350
56.88000 159.136
56.92000 155.124
56.96000 153.026
57.00000 169.483
57.04000 154.616
57.08000 146.384
57.12000 148.524
57.16000 146.353
57.20000 141.774
57.24000 152.857
57.28000 147.227
57.32000 144.194
57.36000 146.905
57.40000 146.791
57.44000 132.660
57.48000 148.003
57.52000 145.581
57.56000 144.813
57.60000 146.003
57.64000 148.066
57.68000 143.668
57.72000 147.372
57.76000 146.305
57.80000 128.200
57.84000 148.344
57.88000 145.540
57.92000 148.479
57.96000 136.595
58.00000 129.671
58.04000 148.412
58.08000 142.859
58.12000 147.341
58.16000 143.424
58.20000 142.816
58.24000 146.831
58.28000 133.430
58.32000 140.087
58.36000 140.307
58.40000 135.843
58.44000 144.817
58.48000 143.398
58.52000 145.389
58.56000 135.716
58.60000 144.335
58.64000 141.475
58.68000 145.874
58.72000 149.049
58.76000 129.451
58.80000 127.423
58.84000 147.696
58.88000 139.633
58.92000 128.172
58.96000 142.454
59.00000 141.983
59.04000 143.408
59.08000 133.626
59.12000 138.152
59.16000 133.815
59.20000 133.080
59.24000 136.608
59.28000 131.812
59.32000 141.722
59.36000 117.645
59.40000 141.387
59.44000 136.404
59.48000 139.725
59.52000 130.356
59.56000 139.049
59.60000 138.638
59.64000 132.227
59.68000 134.117
59.72000 128.204
59.76000 137.321
59.80000 137.017
59.84000 138.127
59.88000 135.276
59.92000 135.540
59.96000 131.789
60.00000 142.182
60.04000 129.848
60.08000 140.398
60.12000 130.237
60.16000 128.490
60.20000 131.790
60.24000 123.892
60.28000 132.544
60.32000 127.886
60.36000 134.786
60.40000 126.903
60.44000 135.499
60.48000 124.414
60.52000 129.478
60.56000 130.140
60.60000 120.457
60.64000 133.628
60.68000 121.421
60.72000 133.444
60.76000 133.317
60.80000 131.743
60.84000 132.660
60.88000 130.201
60.92000 121.643
60.96000 137.285
61.00000 144.152
61.04000 148.035
61.08000 140.615
61.12000 140.361
61.16000 140.488
61.20000 135.175
61.24000 137.292
61.28000 138.336
61.32000 139.429
61.36000 148.971
61.40000 143.922
61.44000 141.023
61.48000 166.348
61.52000 186.805
61.56000 256.486
61.60000 302.749
61.64000 337.104
61.68000 332.243
61.72000 351.461
61.76000 322.663
61.80000 242.165
61.84000 197.042
61.88000 171.203
61.92000 159.339
61.96000 157.348
62.00000 154.870
62.04000 147.700
62.08000 147.267
62.12000 137.218
62.16000 145.567
62.20000 141.779
62.24000 135.157
62.28000 134.089
62.32000 147.094
62.36000 143.676
62.40000 139.335
62.44000 147.074
62.48000 144.529
62.52000 129.742
62.56000 145.427
62.60000 130.713
62.64000 150.604
62.68000 148.510
62.72000 146.697
62.76000 140.369
62.80000 138.864
62.84000 144.611
62.88000 154.527
62.92000 141.364
62.96000 151.334
63.00000 143.404
63.04000 152.909
63.08000 151.271
63.12000 142.253
63.16000 151.039
63.20000 145.595
63.24000 157.060
63.28000 158.207
63.32000 148.228
63.36000 152.729
63.40000 150.411
63.44000 155.369
63.48000 149.937
63.52000 150.802
63.56000 156.325
63.60000 155.973
63.64000 153.657
63.68000 159.022
63.72000 151.309
63.76000 158.730
63.80000 163.173
63.84000 141.117
63.88000 160.240
63.92000 153.684
63.96000 156.607
64.00000 153.851
64.04000 159.940
64.08000 158.799
64.12000 160.749
64.16000 153.047
64.20000 156.755
64.24000 178.889
64.28000 155.912
64.32000 159.570
64.36000 170.013
64.40000 169.444
64.44000 163.851
64.48000 163.737
64.52000 180.811
64.56000 169.390
64.60000 179.093
64.64000 172.416
64.68000 185.456
64.72000 179.426
64.76000 181.859
64.80000 184.220
64.84000 189.496
64.88000 194.581
64.92000 190.300
64.96000 198.387
65.00000 201.860
65.04000 202.156
65.08000 207.627
65.12000 225.959
65.16000 235.507
65.20000 251.159
65.24000 265.546
65.28000 293.900
65.32000 302.916
65.36000 334.585
65.40000 333.943
65.44000 382.780
65.48000 397.957
65.52000 407.819
65.56000 429.156
65.60000 474.406
65.64000 532.775
65.68000 627.331
65.72000 839.667
65.76000 1126.564
65.80000 1371.190
65.84000 1505.095
65.88000 1515.134
65.92000 1424.686
65.96000 1244.831
66.00000 838.343
66.04000 572.256
66.08000 443.768
66.12000 377.637
66.16000 383.892
66.20000 359.615
66.24000 361.376
66.28000 441.043
66.32000 496.263
66.36000 535.514
66.40000 545.721
66.44000 555.808
66.48000 546.781
66.52000 489.166
66.56000 424.952
66.60000 382.695
66.64000 364.073
66.68000 353.179
66.72000 355.909
66.76000 350.453
66.80000 363.827
66.84000 354.935
66.88000 393.040
66.92000 374.056
66.96000 399.899
67.00000 366.121
67.04000 395.434
67.08000 405.509
67.12000 408.201
67.16000 412.619
67.20000 397.543
67.24000 438.894
67.28000 427.870
67.32000 452.217
67.36000 447.996
67.40000 431.774
67.44000 482.494
67.48000 472.856
67.52000 458.120
67.56000 491.828
67.60000 514.220
67.64000 504.413
67.68000 522.363
67.72000 533.406
67.76000 537.344
67.80000 560.516
67.84000 566.942
67.88000 581.323
67.92000 579.157
67.96000 584.412
68.00000 610.942
68.04000 614.802
68.08000 648.987
68.12000 633.470
68.16000 663.382
68.20000 684.334
68.24000 717.747
68.28000 735.088
68.32000 752.437
68.36000 763.721
68.40000 799.370
68.44000 875.403
68.48000 896.886
68.52000 990.911
68.56000 1071.176
68.60000 1214.677
68.64000 1473.148
68.68000 1815.101
68.72000 2113.805
68.76000 2484.905
68.80000 2936.645
68.84000 3709.154
68.88000 5103.907
68.92000 9710.497
68.96000 22535.535
69.00000 47000.152
69.04000 71566.492
69.08000 83798.359
69.12000 87264.016
69.16000 90541.906
69.20000 88795.766
69.24000 73192.453
69.28000 56637.441
69.32000 47030.484
69.36000 41919.379
69.40000 33577.059
69.44000 20029.344
69.48000 9418.421
69.52000 4352.170
69.56000 2598.506
69.60000 1955.013
69.64000 1622.755
69.68000 1420.693
69.72000 1245.672
69.76000 1140.395
69.80000 1036.166
69.84000 979.916
69.88000 915.635
69.92000 880.293
69.96000 813.964
70.00000 792.679