File: XRD/22-09-2025 Dep 2/XY Data/BTO_Mapping_Theta2Theta_22-09-2025_001_36_-45-048_21-694.xy
20.00000 551.569
20.04000 547.624
20.08000 555.023
20.12000 542.921
20.16000 537.285
20.20000 543.040
20.24000 564.115
20.28000 539.270
20.32000 568.136
20.36000 552.516
20.40000 557.209
20.44000 559.690
20.48000 554.497
20.52000 561.359
20.56000 552.637
20.60000 552.820
20.64000 558.958
20.68000 538.258
20.72000 542.874
20.76000 533.249
20.80000 535.358
20.84000 530.080
20.88000 556.308
20.92000 553.042
20.96000 518.676
21.00000 522.490
21.04000 537.448
21.08000 540.715
21.12000 517.582
21.16000 550.665
21.20000 548.642
21.24000 532.808
21.28000 535.343
21.32000 536.844
21.36000 548.483
21.40000 532.232
21.44000 529.671
21.48000 530.440
21.52000 535.776
21.56000 532.233
21.60000 557.702
21.64000 545.700
21.68000 528.177
21.72000 516.827
21.76000 513.186
21.80000 512.731
21.84000 502.579
21.88000 504.900
21.92000 526.754
21.96000 513.005
22.00000 498.853
22.04000 535.049
22.08000 521.953
22.12000 496.101
22.16000 519.203
22.20000 521.528
22.24000 494.650
22.28000 510.912
22.32000 503.356
22.36000 517.911
22.40000 518.266
22.44000 526.097
22.48000 521.621
22.52000 531.036
22.56000 511.188
22.60000 492.488
22.64000 506.955
22.68000 515.405
22.72000 502.317
22.76000 507.968
22.80000 504.943
22.84000 491.189
22.88000 526.729
22.92000 481.705
22.96000 493.011
23.00000 487.484
23.04000 497.614
23.08000 510.950
23.12000 498.617
23.16000 486.017
23.20000 504.206
23.24000 497.922
23.28000 493.943
23.32000 512.792
23.36000 491.112
23.40000 504.849
23.44000 510.557
23.48000 479.212
23.52000 481.173
23.56000 507.992
23.60000 495.109
23.64000 493.232
23.68000 487.025
23.72000 478.543
23.76000 483.176
23.80000 496.808
23.84000 470.820
23.88000 480.985
23.92000 494.667
23.96000 486.203
24.00000 476.683
24.04000 483.045
24.08000 481.907
24.12000 462.609
24.16000 453.734
24.20000 486.628
24.24000 470.370
24.28000 453.329
24.32000 484.364
24.36000 482.492
24.40000 491.639
24.44000 469.438
24.48000 473.309
24.52000 474.955
24.56000 465.344
24.60000 468.090
24.64000 473.151
24.68000 459.575
24.72000 453.516
24.76000 478.035
24.80000 473.566
24.84000 481.102
24.88000 458.034
24.92000 472.309
24.96000 469.702
25.00000 480.757
25.04000 474.917
25.08000 449.372
25.12000 487.148
25.16000 451.648
25.20000 454.218
25.24000 449.052
25.28000 472.482
25.32000 483.018
25.36000 468.361
25.40000 459.243
25.44000 437.597
25.48000 441.095
25.52000 453.877
25.56000 449.606
25.60000 471.339
25.64000 467.918
25.68000 458.981
25.72000 434.557
25.76000 451.858
25.80000 456.871
25.84000 452.269
25.88000 452.958
25.92000 442.237
25.96000 439.007
26.00000 458.927
26.04000 462.058
26.08000 441.284
26.12000 444.647
26.16000 432.245
26.20000 435.767
26.24000 448.150
26.28000 445.518
26.32000 451.319
26.36000 453.061
26.40000 468.875
26.44000 433.863
26.48000 444.497
26.52000 444.810
26.56000 439.214
26.60000 434.243
26.64000 447.022
26.68000 429.066
26.72000 445.613
26.76000 422.466
26.80000 436.892
26.84000 426.523
26.88000 438.907
26.92000 426.213
26.96000 426.252
27.00000 421.151
27.04000 441.937
27.08000 458.113
27.12000 416.086
27.16000 437.428
27.20000 464.072
27.24000 419.854
27.28000 427.098
27.32000 441.396
27.36000 420.660
27.40000 423.114
27.44000 423.928
27.48000 420.191
27.52000 422.177
27.56000 412.879
27.60000 418.267
27.64000 421.624
27.68000 417.637
27.72000 424.577
27.76000 408.864
27.80000 403.665
27.84000 417.994
27.88000 410.024
27.92000 423.947
27.96000 415.268
28.00000 399.356
28.04000 419.639
28.08000 404.052
28.12000 397.597
28.16000 408.209
28.20000 415.925
28.24000 411.179
28.28000 417.799
28.32000 416.553
28.36000 421.320
28.40000 409.386
28.44000 400.789
28.48000 403.244
28.52000 397.236
28.56000 408.177
28.60000 382.213
28.64000 394.128
28.68000 387.595
28.72000 398.489
28.76000 407.479
28.80000 386.766
28.84000 386.195
28.88000 405.850
28.92000 404.624
28.96000 391.616
29.00000 410.685
29.04000 407.658
29.08000 390.960
29.12000 392.994
29.16000 404.456
29.20000 386.549
29.24000 406.684
29.28000 386.388
29.32000 383.228
29.36000 378.139
29.40000 380.081
29.44000 361.576
29.48000 388.014
29.52000 404.478
29.56000 386.530
29.60000 380.009
29.64000 375.315
29.68000 379.333
29.72000 396.797
29.76000 384.667
29.80000 379.302
29.84000 392.911
29.88000 369.521
29.92000 390.049
29.96000 361.863
30.00000 383.283
30.04000 363.771
30.08000 390.251
30.12000 367.831
30.16000 379.136
30.20000 378.850
30.24000 369.152
30.28000 381.925
30.32000 374.311
30.36000 387.680
30.40000 390.454
30.44000 371.184
30.48000 376.293
30.52000 377.700
30.56000 370.616
30.60000 353.148
30.64000 382.213
30.68000 360.884
30.72000 345.876
30.76000 365.756
30.80000 367.219
30.84000 370.650
30.88000 362.031
30.92000 363.669
30.96000 362.220
31.00000 365.111
31.04000 353.668
31.08000 358.543
31.12000 347.041
31.16000 360.029
31.20000 355.967
31.24000 363.779
31.28000 357.544
31.32000 363.132
31.36000 349.178
31.40000 364.306
31.44000 356.745
31.48000 345.572
31.52000 353.634
31.56000 359.485
31.60000 352.774
31.64000 348.871
31.68000 328.605
31.72000 349.926
31.76000 352.319
31.80000 348.918
31.84000 349.673
31.88000 358.863
31.92000 350.640
31.96000 337.260
32.00000 334.373
32.04000 338.982
32.08000 345.505
32.12000 357.671
32.16000 336.352
32.20000 353.282
32.24000 338.501
32.28000 353.421
32.32000 334.870
32.36000 344.532
32.40000 344.864
32.44000 340.534
32.48000 343.120
32.52000 344.369
32.56000 346.343
32.60000 344.010
32.64000 329.309
32.68000 332.078
32.72000 333.524
32.76000 355.270
32.80000 337.794
32.84000 332.970
32.88000 329.747
32.92000 344.915
32.96000 332.749
33.00000 333.239
33.04000 341.090
33.08000 313.102
33.12000 319.391
33.16000 331.209
33.20000 336.955
33.24000 352.431
33.28000 339.468
33.32000 327.158
33.36000 352.964
33.40000 324.929
33.44000 329.745
33.48000 316.628
33.52000 327.923
33.56000 334.110
33.60000 324.329
33.64000 321.278
33.68000 335.926
33.72000 309.595
33.76000 326.594
33.80000 312.578
33.84000 320.951
33.88000 327.071
33.92000 318.033
33.96000 312.359
34.00000 327.848
34.04000 305.785
34.08000 325.351
34.12000 312.792
34.16000 315.178
34.20000 301.885
34.24000 306.987
34.28000 307.433
34.32000 312.585
34.36000 318.142
34.40000 330.236
34.44000 310.714
34.48000 303.830
34.52000 312.367
34.56000 311.370
34.60000 323.294
34.64000 302.672
34.68000 307.608
34.72000 310.073
34.76000 300.714
34.80000 312.531
34.84000 293.132
34.88000 311.069
34.92000 306.406
34.96000 303.721
35.00000 297.067
35.04000 315.527
35.08000 310.125
35.12000 304.787
35.16000 300.007
35.20000 299.134
35.24000 309.970
35.28000 290.167
35.32000 303.502
35.36000 306.428
35.40000 296.303
35.44000 290.677
35.48000 294.427
35.52000 298.077
35.56000 291.261
35.60000 283.668
35.64000 292.667
35.68000 300.331
35.72000 277.771
35.76000 308.721
35.80000 307.946
35.84000 289.699
35.88000 292.763
35.92000 280.735
35.96000 300.322
36.00000 301.575
36.04000 282.342
36.08000 289.159
36.12000 280.050
36.16000 285.680
36.20000 292.694
36.24000 292.080
36.28000 287.057
36.32000 285.069
36.36000 284.382
36.40000 281.992
36.44000 286.802
36.48000 293.566
36.52000 298.089
36.56000 281.553
36.60000 293.527
36.64000 287.151
36.68000 273.803
36.72000 275.366
36.76000 289.960
36.80000 287.054
36.84000 277.093
36.88000 279.486
36.92000 280.853
36.96000 269.805
37.00000 277.191
37.04000 274.904
37.08000 280.353
37.12000 282.629
37.16000 274.667
37.20000 266.886
37.24000 284.405
37.28000 269.184
37.32000 263.088
37.36000 280.455
37.40000 268.737
37.44000 270.800
37.48000 265.798
37.52000 274.277
37.56000 260.060
37.60000 270.314
37.64000 275.467
37.68000 254.081
37.72000 276.466
37.76000 259.931
37.80000 268.779
37.84000 263.284
37.88000 244.129
37.92000 266.238
37.96000 266.285
38.00000 259.850
38.04000 275.115
38.08000 263.401
38.12000 263.680
38.16000 264.281
38.20000 253.292
38.24000 257.025
38.28000 264.465
38.32000 259.359
38.36000 258.395
38.40000 252.036
38.44000 263.433
38.48000 259.324
38.52000 256.717
38.56000 251.047
38.60000 260.151
38.64000 241.747
38.68000 265.991
38.72000 254.891
38.76000 253.678
38.80000 265.043
38.84000 255.406
38.88000 246.006
38.92000 258.938
38.96000 256.618
39.00000 265.416
39.04000 246.477
39.08000 238.026
39.12000 250.031
39.16000 256.465
39.20000 262.124
39.24000 252.827
39.28000 258.675
39.32000 263.512
39.36000 245.376
39.40000 247.900
39.44000 264.970
39.48000 250.307
39.52000 228.997
39.56000 240.291
39.60000 241.965
39.64000 235.680
39.68000 247.479
39.72000 254.858
39.76000 248.777
39.80000 251.996
39.84000 262.531
39.88000 244.139
39.92000 244.163
39.96000 245.992
40.00000 233.114
40.04000 237.073
40.08000 242.114
40.12000 239.684
40.16000 250.198
40.20000 240.428
40.24000 245.944
40.28000 245.023
40.32000 243.013
40.36000 224.464
40.40000 245.556
40.44000 230.972
40.48000 239.106
40.52000 236.751
40.56000 209.498
40.60000 224.600
40.64000 233.596
40.68000 241.918
40.72000 245.228
40.76000 236.260
40.80000 237.049
40.84000 226.867
40.88000 225.831
40.92000 239.855
40.96000 224.352
41.00000 215.787
41.04000 224.060
41.08000 223.425
41.12000 236.450
41.16000 239.060
41.20000 227.132
41.24000 218.823
41.28000 232.680
41.32000 211.261
41.36000 228.332
41.40000 244.820
41.44000 230.280
41.48000 225.185
41.52000 229.188
41.56000 235.718
41.60000 215.238
41.64000 231.300
41.68000 225.792
41.72000 223.723
41.76000 231.327
41.80000 226.614
41.84000 228.537
41.88000 224.842
41.92000 220.818
41.96000 216.266
42.00000 215.630
42.04000 226.480
42.08000 223.118
42.12000 224.278
42.16000 216.155
42.20000 218.530
42.24000 215.625
42.28000 216.530
42.32000 204.219
42.36000 213.914
42.40000 203.278
42.44000 215.713
42.48000 210.711
42.52000 220.627
42.56000 195.862
42.60000 208.366
42.64000 203.462
42.68000 220.007
42.72000 214.319
42.76000 208.302
42.80000 212.301
42.84000 217.322
42.88000 197.520
42.92000 214.765
42.96000 193.703
43.00000 204.075
43.04000 210.474
43.08000 208.908
43.12000 207.593
43.16000 206.464
43.20000 195.904
43.24000 208.990
43.28000 207.755
43.32000 212.248
43.36000 202.901
43.40000 201.198
43.44000 204.990
43.48000 207.506
43.52000 212.481
43.56000 211.328
43.60000 229.208
43.64000 197.511
43.68000 195.753
43.72000 192.050
43.76000 202.883
43.80000 206.578
43.84000 216.247
43.88000 200.390
43.92000 210.690
43.96000 200.127
44.00000 202.102
44.04000 186.087
44.08000 204.210
44.12000 204.379
44.16000 211.093
44.20000 198.919
44.24000 211.173
44.28000 198.332
44.32000 203.890
44.36000 192.239
44.40000 198.460
44.44000 192.141
44.48000 187.115
44.52000 181.671
44.56000 188.506
44.60000 192.777
44.64000 202.658
44.68000 198.114
44.72000 200.241
44.76000 184.289
44.80000 196.676
44.84000 200.432
44.88000 185.746
44.92000 182.299
44.96000 185.568
45.00000 181.470
45.04000 181.205
45.08000 197.239
45.12000 190.936
45.16000 202.536
45.20000 193.295
45.24000 185.144
45.28000 191.663
45.32000 188.238
45.36000 186.048
45.40000 181.635
45.44000 185.472
45.48000 181.941
45.52000 196.538
45.56000 185.015
45.60000 196.223
45.64000 183.444
45.68000 206.463
45.72000 188.495
45.76000 199.770
45.80000 176.206
45.84000 185.089
45.88000 178.360
45.92000 178.689
45.96000 170.297
46.00000 175.532
46.04000 179.022
46.08000 178.435
46.12000 188.034
46.16000 186.922
46.20000 179.979
46.24000 183.514
46.28000 179.395
46.32000 172.232
46.36000 173.988
46.40000 174.913
46.44000 176.711
46.48000 178.288
46.52000 174.789
46.56000 175.714
46.60000 174.306
46.64000 187.296
46.68000 182.859
46.72000 172.895
46.76000 174.083
46.80000 187.251
46.84000 187.308
46.88000 188.140
46.92000 180.357
46.96000 174.993
47.00000 173.527
47.04000 185.427
47.08000 171.609
47.12000 177.536
47.16000 166.371
47.20000 172.725
47.24000 166.566
47.28000 174.683
47.32000 166.779
47.36000 176.134
47.40000 170.710
47.44000 167.785
47.48000 175.290
47.52000 166.130
47.56000 168.713
47.60000 186.230
47.64000 178.474
47.68000 174.436
47.72000 177.187
47.76000 169.138
47.80000 178.387
47.84000 174.494
47.88000 172.151
47.92000 174.780
47.96000 156.369
48.00000 164.851
48.04000 164.731
48.08000 168.144
48.12000 176.476
48.16000 166.861
48.20000 157.078
48.24000 166.513
48.28000 161.668
48.32000 166.013
48.36000 172.170
48.40000 166.047
48.44000 164.770
48.48000 164.724
48.52000 170.680
48.56000 166.886
48.60000 165.948
48.64000 165.847
48.68000 176.943
48.72000 157.582
48.76000 162.481
48.80000 148.968
48.84000 160.846
48.88000 167.737
48.92000 161.483
48.96000 167.376
49.00000 160.002
49.04000 156.062
49.08000 164.178
49.12000 162.985
49.16000 164.728
49.20000 162.105
49.24000 162.497
49.28000 160.976
49.32000 152.054
49.36000 153.553
49.40000 152.406
49.44000 147.199
49.48000 153.698
49.52000 150.388
49.56000 154.740
49.60000 162.053
49.64000 161.044
49.68000 160.765
49.72000 168.446
49.76000 157.920
49.80000 156.537
49.84000 152.142
49.88000 153.920
49.92000 158.200
49.96000 165.519
50.00000 152.738
50.04000 154.942
50.08000 151.353
50.12000 147.087
50.16000 154.114
50.20000 144.929
50.24000 150.306
50.28000 151.224
50.32000 157.124
50.36000 147.393
50.40000 150.446
50.44000 157.648
50.48000 152.247
50.52000 149.723
50.56000 154.547
50.60000 142.947
50.64000 157.699
50.68000 152.346
50.72000 139.750
50.76000 137.331
50.80000 155.195
50.84000 158.541
50.88000 135.384
50.92000 147.958
50.96000 151.927
51.00000 159.155
51.04000 144.765
51.08000 145.731
51.12000 134.221
51.16000 144.618
51.20000 145.688
51.24000 144.809
51.28000 141.719
51.32000 145.902
51.36000 145.952
51.40000 154.852
51.44000 142.534
51.48000 150.772
51.52000 149.557
51.56000 140.244
51.60000 141.106
51.64000 149.744
51.68000 144.858
51.72000 146.144
51.76000 147.562
51.80000 145.344
51.84000 151.657
51.88000 140.220
51.92000 147.084
51.96000 128.855
52.00000 147.944
52.04000 146.140
52.08000 128.347
52.12000 133.386
52.16000 136.579
52.20000 143.374
52.24000 147.907
52.28000 149.461
52.32000 156.281
52.36000 134.925
52.40000 136.085
52.44000 132.420
52.48000 140.472
52.52000 145.300
52.56000 144.981
52.60000 143.967
52.64000 138.182
52.68000 144.130
52.72000 137.509
52.76000 133.843
52.80000 122.586
52.84000 131.807
52.88000 128.856
52.92000 137.467
52.96000 141.977
53.00000 134.302
53.04000 140.820
53.08000 144.936
53.12000 145.578
53.16000 143.880
53.20000 127.563
53.24000 147.433
53.28000 135.562
53.32000 143.756
53.36000 142.090
53.40000 139.274
53.44000 141.087
53.48000 141.294
53.52000 137.790
53.56000 139.485
53.60000 140.011
53.64000 132.107
53.68000 132.592
53.72000 137.655
53.76000 133.604
53.80000 141.048
53.84000 131.595
53.88000 121.429
53.92000 129.820
53.96000 128.340
54.00000 133.220
54.04000 127.868
54.08000 136.186
54.12000 133.660
54.16000 125.544
54.20000 129.685
54.24000 126.953
54.28000 129.707
54.32000 131.245
54.36000 130.975
54.40000 140.658
54.44000 134.016
54.48000 141.826
54.52000 135.364
54.56000 125.437
54.60000 129.436
54.64000 133.565
54.68000 134.066
54.72000 135.546
54.76000 123.312
54.80000 121.483
54.84000 121.000
54.88000 139.528
54.92000 124.141
54.96000 136.280
55.00000 120.747
55.04000 130.823
55.08000 123.853
55.12000 127.753
55.16000 128.210
55.20000 123.577
55.24000 127.548
55.28000 126.520
55.32000 125.575
55.36000 126.334
55.40000 121.619
55.44000 126.596
55.48000 130.220
55.52000 129.334
55.56000 131.934
55.60000 130.905
55.64000 123.686
55.68000 117.692
55.72000 136.889
55.76000 128.033
55.80000 126.355
55.84000 126.529
55.88000 126.165
55.92000 109.522
55.96000 125.500
56.00000 122.513
56.04000 127.230
56.08000 115.284
56.12000 118.898
56.16000 114.638
56.20000 129.190
56.24000 126.431
56.28000 125.969
56.32000 115.438
56.36000 116.149
56.40000 115.384
56.44000 124.545
56.48000 125.516
56.52000 117.560
56.56000 124.869
56.60000 121.448
56.64000 133.586
56.68000 118.622
56.72000 112.773
56.76000 113.304
56.80000 110.746
56.84000 123.623
56.88000 133.695
56.92000 127.859
56.96000 123.578
57.00000 124.610
57.04000 123.944
57.08000 127.969
57.12000 121.754
57.16000 111.764
57.20000 116.483
57.24000 115.129
57.28000 113.440
57.32000 112.219
57.36000 121.290
57.40000 115.367
57.44000 111.183
57.48000 122.576
57.52000 126.111
57.56000 126.106
57.60000 119.974
57.64000 119.827
57.68000 119.486
57.72000 118.576
57.76000 124.952
57.80000 126.131
57.84000 113.644
57.88000 118.494
57.92000 120.378
57.96000 122.528
58.00000 107.809
58.04000 128.936
58.08000 122.071
58.12000 119.157
58.16000 113.712
58.20000 124.550
58.24000 111.329
58.28000 117.851
58.32000 119.583
58.36000 117.111
58.40000 113.049
58.44000 107.298
58.48000 104.419
58.52000 116.874
58.56000 115.314
58.60000 116.069
58.64000 112.384
58.68000 113.067
58.72000 113.722
58.76000 107.580
58.80000 110.798
58.84000 117.779
58.88000 117.848
58.92000 118.955
58.96000 113.816
59.00000 111.636
59.04000 104.769
59.08000 118.268
59.12000 114.568
59.16000 121.613
59.20000 109.156
59.24000 114.108
59.28000 122.128
59.32000 111.317
59.36000 117.542
59.40000 115.335
59.44000 111.802
59.48000 123.330
59.52000 118.274
59.56000 116.369
59.60000 108.516
59.64000 114.463
59.68000 116.962
59.72000 115.677
59.76000 109.846
59.80000 110.270
59.84000 108.442
59.88000 112.510
59.92000 111.618
59.96000 111.142
60.00000 104.576
60.04000 105.058
60.08000 100.920
60.12000 101.723
60.16000 105.994
60.20000 112.044
60.24000 107.922
60.28000 112.734
60.32000 115.567
60.36000 105.767
60.40000 107.615
60.44000 116.846
60.48000 114.260
60.52000 117.092
60.56000 113.325
60.60000 113.517
60.64000 105.931
60.68000 108.507
60.72000 111.441
60.76000 111.190
60.80000 104.815
60.84000 110.419
60.88000 98.114
60.92000 100.755
60.96000 107.929
61.00000 107.796
61.04000 115.419
61.08000 113.800
61.12000 109.088
61.16000 104.009
61.20000 104.223
61.24000 104.582
61.28000 113.310
61.32000 100.687
61.36000 123.010
61.40000 103.671
61.44000 103.053
61.48000 100.242
61.52000 105.786
61.56000 111.091
61.60000 109.015
61.64000 107.884
61.68000 107.841
61.72000 114.502
61.76000 112.930
61.80000 111.385
61.84000 111.454
61.88000 118.216
61.92000 110.549
61.96000 120.534
62.00000 110.065
62.04000 103.662
62.08000 118.205
62.12000 102.271
62.16000 106.251
62.20000 100.557
62.24000 102.616
62.28000 105.218
62.32000 96.881
62.36000 102.357
62.40000 107.690
62.44000 103.511
62.48000 106.722
62.52000 111.211
62.56000 96.878
62.60000 107.077
62.64000 105.167
62.68000 107.133
62.72000 94.206
62.76000 104.477
62.80000 109.876
62.84000 103.178
62.88000 102.936
62.92000 106.134
62.96000 100.522
63.00000 110.284
63.04000 110.410
63.08000 113.067
63.12000 114.071
63.16000 107.562
63.20000 103.789
63.24000 105.380
63.28000 100.779
63.32000 108.350
63.36000 109.647
63.40000 113.683
63.44000 106.087
63.48000 104.243
63.52000 102.204
63.56000 109.680
63.60000 104.338
63.64000 109.575
63.68000 109.418
63.72000 102.650
63.76000 110.874
63.80000 106.572
63.84000 110.282
63.88000 111.547
63.92000 106.647
63.96000 103.013
64.00000 109.211
64.04000 105.789
64.08000 103.788
64.12000 110.610
64.16000 97.389
64.20000 101.170
64.24000 105.647
64.28000 102.442
64.32000 101.634
64.36000 107.071
64.40000 93.056
64.44000 100.252
64.48000 108.421
64.52000 109.113
64.56000 99.443
64.60000 111.252
64.64000 100.585
64.68000 97.858
64.72000 97.144
64.76000 109.234
64.80000 96.911
64.84000 104.338
64.88000 101.117
64.92000 104.124
64.96000 100.063
65.00000 105.535
65.04000 104.683
65.08000 99.294
65.12000 101.372
65.16000 102.384
65.20000 106.400
65.24000 104.837
65.28000 104.943
65.32000 104.108
65.36000 106.058
65.40000 106.365
65.44000 94.072
65.48000 107.934
65.52000 116.750
65.56000 107.934
65.60000 108.909
65.64000 105.981
65.68000 104.313
65.72000 111.545
65.76000 113.932
65.80000 123.793
65.84000 140.682
65.88000 136.214
65.92000 143.800
65.96000 152.989
66.00000 134.522
66.04000 134.354
66.08000 119.234
66.12000 122.662
66.16000 111.565
66.20000 112.424
66.24000 112.799
66.28000 104.536
66.32000 117.809
66.36000 125.429
66.40000 115.678
66.44000 123.471
66.48000 112.874
66.52000 117.671
66.56000 122.565
66.60000 124.861
66.64000 125.497
66.68000 115.777
66.72000 108.960
66.76000 110.755
66.80000 118.306
66.84000 112.344
66.88000 104.947
66.92000 120.543
66.96000 113.260
67.00000 116.585
67.04000 110.532
67.08000 120.845
67.12000 109.089
67.16000 106.819
67.20000 109.085
67.24000 110.223
67.28000 108.562
67.32000 113.886
67.36000 114.303
67.40000 120.080
67.44000 112.973
67.48000 122.664
67.52000 120.745
67.56000 119.869
67.60000 109.315
67.64000 124.524
67.68000 115.193
67.72000 125.901
67.76000 119.790
67.80000 122.791
67.84000 122.515
67.88000 128.319
67.92000 123.346
67.96000 122.275
68.00000 121.656
68.04000 123.119
68.08000 119.558
68.12000 126.068
68.16000 128.275
68.20000 127.610
68.24000 127.390
68.28000 121.259
68.32000 128.111
68.36000 139.606
68.40000 139.311
68.44000 133.826
68.48000 138.679
68.52000 140.393
68.56000 133.579
68.60000 149.290
68.64000 157.270
68.68000 166.535
68.72000 167.986
68.76000 168.402
68.80000 196.615
68.84000 218.753
68.88000 251.803
68.92000 295.347
68.96000 358.280
69.00000 483.797
69.04000 803.357
69.08000 1638.224
69.12000 2426.478
69.16000 2768.507
69.20000 3032.863
69.24000 3293.667
69.28000 3178.018
69.32000 2285.807
69.36000 1632.733
69.40000 1590.805
69.44000 1587.961
69.48000 1257.668
69.52000 621.609
69.56000 279.568
69.60000 210.467
69.64000 177.473
69.68000 172.473
69.72000 155.649
69.76000 157.081
69.80000 156.657
69.84000 144.452
69.88000 146.945
69.92000 147.519
69.96000 142.069
70.00000 135.511